x,y,z,vx,vy,vz,ax,ay,az,mass
-0.91093897819519043,-0.029180057346820831,-0.91093891859054565,-0.11465579271316528,-1.5887055397033691,-0.11465536803007126,-0.43586787581443787,-10.265113830566406,-0.43586543202400208,8
-0.70822310447692871,-0.041917875409126282,-0.92333287000656128,-0.078764423727989197,-1.6577314138412476,-0.18006408214569092,-0.23523195087909698,-10.020664215087891,-0.18397717177867889,8
-0.50128686428070068,-0.04730677604675293,-0.92787665128707886,-0.016538975760340691,-1.6961795091629028,-0.21021567285060883,-0.09542354941368103,-9.996159553527832,-0.14735831320285797,8
-0.29945588111877441,-0.047239992767572403,-0.92702877521514893,0.0050245444290339947,-1.6962610483169556,-0.20380191504955292,-0.00052877236157655716,-10.008333206176758,-0.16705645620822906,8
-0.099765501916408539,-0.046635527163743973,-0.92615538835525513,0.0030882200226187706,-1.6897310018539429,-0.19521746039390564,0.015763446688652039,-9.9908666610717773,-0.15563739836215973,8
0.099765494465827942,-0.046635527163743973,-0.92615538835525513,-0.0030883445870131254,-1.6897310018539429,-0.19521763920783997,-0.015764620155096054,-9.9908666610717773,-0.15563829243183136,8
0.29945585131645203,-0.047239992767572403,-0.92702901363372803,-0.0050251008942723274,-1.6962610483169556,-0.20380315184593201,0.00052706804126501083,-10.008333206176758,-0.16705824434757233,8
0.50128686428070068,-0.047306783497333527,-0.92787766456604004,0.016537990421056747,-1.6961795091629028,-0.21021939814090729,0.095423132181167603,-9.996159553527832,-0.14734087884426117,8
0.70822304487228394,-0.041918069124221802,-0.92333316802978516,0.078764259815216064,-1.6577326059341431,-0.18006642162799835,0.2352323979139328,-10.020664215087891,-0.18397985398769379,8
0.91093897819519043,-0.02918015792965889,-0.91093891859054565,0.11465655267238617,-1.5887067317962646,-0.11465679854154587,0.43587055802345276,-10.265117645263672,-0.43587258458137512,8
-0.92333292961120605,-0.041917800903320312,-0.70822292566299438,-0.18006408214569092,-1.6577306985855103,-0.078763484954833984,-0.18397806584835052,-10.020664215087891,-0.2352294921875,8
-0.71605050563812256,-0.077401578426361084,-0.71605038642883301,-0.10790424048900604,-1.7897422313690186,-0.10790344327688217,-0.0099695464596152306,-9.1066856384277344,-0.0099688759073615074,8
-0.49830013513565063,-0.08610871434211731,-0.7128366231918335,0.0011104523437097669,-1.8401428461074829,-0.09301341325044632,-0.12668435275554657,-9.0173606872558594,-0.095112688839435577,8
-0.2964748740196228,-0.079699777066707611,-0.70499336719512939,0.025835294276475906,-1.8158762454986572,-0.052645351737737656,-0.010523366741836071,-9.2139806747436523,-0.22897458076477051,8
-0.099120177328586578,-0.076757699251174927,-0.70197468996047974,0.010325320065021515,-1.7955491542816162,-0.028876032680273056,0.042881086468696594,-9.2345800399780273,-0.20731072127819061,8
0.099120177328586578,-0.076757706701755524,-0.70197468996047974,-0.01032536942511797,-1.7955492734909058,-0.028876084834337234,-0.04288170114159584,-9.2345800399780273,-0.20731037855148315,8
0.29647484421730042,-0.079699777066707611,-0.70499342679977417,-0.025835670530796051,-1.8158764839172363,-0.052645746618509293,0.010521410964429379,-9.213984489440918,-0.22897425293922424,8
0.49830010533332825,-0.086108893156051636,-0.7128366231918335,-0.0011111419880762696,-1.8401439189910889,-0.093014441430568695,0.12668322026729584,-9.0173578262329102,-0.095112241804599762,8
0.71605050563812256,-0.077402196824550629,-0.71605062484741211,0.10790417343378067,-1.7897448539733887,-0.1079045832157135,0.0099688759073615074,-9.1066751480102539,-0.0099702170118689537,8
0.92333304882049561,-0.041918061673641205,-0.70822310447692871,0.18006503582000732,-1.6577326059341431,-0.078764304518699646,0.18397851288318634,-10.020664215087891,-0.23523329198360443,8
-0.92787665128707886,-0.047306500375270844,-0.50128686428070068,-0.21021464467048645,-1.6961774826049805,-0.016537752002477646,-0.14735876023769379,-9.996159553527832,-0.095421925187110901,8
-0.7128366231918335,-0.086108289659023285,-0.49830001592636108,-0.09301353245973587,-1.8401408195495605,0.0011114845983684063,-0.095112241804599762,-9.0173683166503906,-0.12668322026729584,8
-0.48751422762870789,-0.076492615044116974,-0.48751401901245117,0.052134186029434204,-1.8191350698471069,0.052135024219751358,-0.35109555721282959,-9.369542121887207,-0.35109478235244751,8
-0.28984859585762024,-0.054770451039075851,-0.4848533570766449,0.070220030844211578,-1.7490049600601196,0.060054589062929153,-0.029626337811350822,-9.9528617858886719,-0.36578255891799927,8
-0.09709196537733078,-0.044643063098192215,-0.48170784115791321,0.035558585077524185,-1.6774426698684692,0.094367437064647675,0.11946278810501099,-10.057965278625488,-0.36976617574691772,8
0.097091995179653168,-0.044643081724643707,-0.48170784115791321,-0.035558383911848068,-1.6774426698684692,0.09436759352684021,-0.11947184056043625,-10.057965278625488,-0.36976239085197449,8
0.28984856605529785,-0.054770536720752716,-0.4848533570766449,-0.070220455527305603,-1.7490055561065674,0.060057353228330612,0.029622314497828484,-9.9528722763061523,-0.36570969223976135,8
0.48751410841941833,-0.076492823660373688,-0.48751401901245117,-0.052134916186332703,-1.8191366195678711,0.052135344594717026,0.35109063982963562,-9.3695459365844727,-0.35109096765518188,8
0.7128366231918335,-0.086108848452568054,-0.49830001592636108,0.093013480305671692,-1.8401434421539307,0.0011115290690213442,0.095112241804599762,-9.0173578262329102,-0.12668338418006897,8
0.92787671089172363,-0.04730679839849472,-0.50128686428070068,0.21021510660648346,-1.6961796283721924,-0.016537757590413094,0.14735965430736542,-9.996159553527832,-0.095422431826591492,8
-0.92702871561050415,-0.047239735722541809,-0.29945585131645203,-0.20380070805549622,-1.6962591409683228,0.0050251572392880917,-0.16705556213855743,-10.008333206176758,-0.00052648130804300308,8
-0.70499336719512939,-0.079699143767356873,-0.29647484421730042,-0.052645280957221985,-1.815873384475708,0.0258357934653759,-0.22897514700889587,-9.2139921188354492,-0.010521131567656994,8
-0.48485347628593445,-0.054770257323980331,-0.28984856605529785,0.060053817927837372,-1.7490037679672241,0.070220418274402618,-0.36578398942947388,-9.9528656005859375,-0.029626114293932915,8
-0.29142624139785767,-0.042381390929222107,-0.29142618179321289,0.079098351299762726,-1.7393521070480347,0.079098843038082123,0.11607459932565689,-10.293877601623535,0.11607549339532852,8
-0.093981094658374786,-0.028556149452924728,-0.29252642393112183,0.072007730603218079,-1.6118083000183105,0.081180430948734283,0.10975151509046555,-10.535605430603027,0.24238651990890503,8
0.093981035053730011,-0.028556184843182564,-0.29252642393112183,-0.07200835645198822,-1.6118079423904419,0.08118072897195816,-0.10976805537939072,-10.535601615905762,0.242391437292099,8
0.29142609238624573,-0.042381536215543747,-0.29142597317695618,-0.079100266098976135,-1.7393513917922974,0.079100757837295532,-0.11606096476316452,-10.293867111206055,0.11606275290250778,8
0.4848533570766449,-0.054770484566688538,-0.28984853625297546,-0.060057014226913452,-1.7490051984786987,0.070221081376075745,0.36570888757705688,-9.9528722763061523,-0.029619855806231499,8
0.70499336719512939,-0.07969946414232254,-0.29647478461265564,0.052645176649093628,-1.8158751726150513,0.025836024433374405,0.22897346317768097,-9.2139921188354492,-0.010520628653466702,8
0.92702871561050415,-0.047239955514669418,-0.29945582151412964,0.20380079746246338,-1.6962606906890869,0.0050252694636583328,0.16705645620822906,-10.008333206176758,-0.00052607618272304535,8
-0.92615538835525513,-0.046635270118713379,-0.099765457212924957,-0.19521680474281311,-1.6897292137145996,0.003088315250352025,-0.15563382208347321,-9.9908666610717773,0.015764340758323669,8
-0.70197468996047974,-0.076757140457630157,-0.099120140075683594,-0.028876055032014847,-1.7955464124679565,0.010325361043214798,-0.20731043815612793,-9.2345914840698242,0.042881812900304794,8
-0.4817078709602356,-0.044642850756645203,-0.097091935575008392,0.094366610050201416,-1.6774414777755737,0.035558495670557022,-0.3697684109210968,-10.057968139648438,0.11946155875921249,8
-0.2925264835357666,-0.028556127101182938,-0.093981049954891205,0.081179685890674591,-1.6118080615997314,0.072007715702056885,0.24238339066505432,-10.535605430603027,0.10974950343370438,8
-0.09716622531414032,-0.021486943587660789,-0.097166188061237335,0.04273344948887825,-1.5453568696975708,0.042733639478683472,0.24023349583148956,-10.738827705383301,0.24023327231407166,8
0.097166158258914948,-0.0214869175106287,-0.097166121006011963,-0.042733874171972275,-1.5453566312789917,0.042733807116746902,-0.24021159112453461,-10.738838195800781,0.24020946025848389,8
0.2925264835357666,-0.028556184843182564,-0.093980990350246429,-0.081180371344089508,-1.6118079423904419,0.072008311748504639,-0.242391437292099,-10.535601615905762,0.10976582020521164,8
0.4817078709602356,-0.044643022119998932,-0.097091928124427795,-0.094367280602455139,-1.677442193031311,0.035558465868234634,0.36976060271263123,-10.057965278625488,0.11947161704301834,8
0.70197468996047974,-0.076757349073886871,-0.099120132625102997,0.028875887393951416,-1.7955477237701416,0.010325419716536999,0.20730865001678467,-9.2345876693725586,0.042881842702627182,8
0.92615532875061035,-0.046635456383228302,-0.099765457212924957,0.19521676003932953,-1.6897304058074951,0.0030883413273841143,0.15563382208347321,-9.9908666610717773,0.015764521434903145,8
-0.92615538835525513,-0.046635270118713379,0.099765516817569733,-0.1952168345451355,-1.6897292137145996,-0.0030883685685694218,-0.15563471615314484,-9.9908666610717773,-0.015764856711030006,8
-0.70197468996047974,-0.076757058501243591,0.099120192229747772,-0.028876099735498428,-1.795546293258667,-0.01032548863440752,-0.20731043815612793,-9.2345943450927734,-0.042882762849330902,8
-0.4817078709602356,-0.044642850756645203,0.097091957926750183,0.09436662495136261,-1.6774413585662842,-0.035558838397264481,-0.36976796388626099,-10.057968139648438,-0.11946938186883926,8
-0.2925264835357666,-0.028556114062666893,0.093980990350246429,0.081179924309253693,-1.6118083000183105,-0.072010330855846405,0.24238741397857666,-10.535630226135254,-0.1097966656088829,8
-0.097166195511817932,-0.02148689329624176,0.097166210412979126,0.042733915150165558,-1.5453566312789917,-0.042734213173389435,0.24022890627384186,-10.738845825195312,-0.24023327231407166,8
0.097166165709495544,-0.021486919373273849,0.097166195511817932,-0.042734071612358093,-1.5453565120697021,-0.042733993381261826,-0.24021057784557343,-10.738838195800781,-0.2402113676071167,8
0.29252645373344421,-0.02855616994202137,0.093980997800827026,-0.081180587410926819,-1.611808180809021,-0.072009749710559845,-0.24239456653594971,-10.535609245300293,-0.10977856069803238,8
0.48170772194862366,-0.044643007218837738,0.097091950476169586,-0.094368495047092438,-1.6774420738220215,-0.035558946430683136,0.36977735161781311,-10.057965278625488,-0.11946804076433182,8
0.70197468996047974,-0.076757319271564484,0.099120177328586578,0.028875852003693581,-1.7955474853515625,-0.010325632989406586,0.20730820298194885,-9.2345876693725586,-0.042882848531007767,8
0.92615532875061035,-0.046635441482067108,0.099765501916408539,0.19521676003932953,-1.6897302865982056,-0.0030884658917784691,0.15563382208347321,-9.9908666610717773,-0.01576516404747963,8
-0.92702871561050415,-0.047239750623703003,0.2994559109210968,-0.20380070805549622,-1.6962592601776123,-0.0050252652727067471,-0.16705556213855743,-10.008333206176758,0.00052575487643480301,8
-0.70499336719512939,-0.079699203372001648,0.29647490382194519,-0.052645381540060043,-1.815873384475708,-0.025835983455181122,-0.22897569835186005,-9.2139921188354492,0.010519846342504025,8
-0.48485353589057922,-0.054770264774560928,0.28984859585762024,0.060052778571844101,-1.7490038871765137,-0.070220872759819031,-0.36576488614082336,-9.9528722763061523,0.029619632288813591,8
-0.29142612218856812,-0.042381379753351212,0.29142612218856812,0.079100072383880615,-1.7393523454666138,-0.079100526869297028,0.11606007069349289,-10.293924331665039,-0.11606163531541824,8
-0.093980990350246429,-0.028556132689118385,0.29252651333808899,0.072009995579719543,-1.6118084192276001,-0.081180490553379059,0.10979107767343521,-10.535627365112305,-0.24239054322242737,8
0.093980960547924042,-0.02855616994202137,0.29252651333808899,-0.07200980931520462,-1.611808180809021,-0.081180617213249207,-0.10977744311094284,-10.535609245300293,-0.24239411950111389,8
0.29142600297927856,-0.042381446808576584,0.29142603278160095,-0.079102858901023865,-1.7393511533737183,-0.079102799296379089,-0.11612936109304428,-10.29387092590332,-0.11612891405820847,8
0.48485350608825684,-0.054770447313785553,0.28984859585762024,-0.060055974870920181,-1.7490048408508301,-0.070220969617366791,0.36569827795028687,-9.9528684616088867,0.029617397114634514,8
0.70499336719512939,-0.079699434340000153,0.29647484421730042,0.052645184099674225,-1.8158748149871826,-0.025836087763309479,0.22897268831729889,-9.2139921188354492,0.010521243326365948,8
0.92702871561050415,-0.047239944338798523,0.29945588111877441,0.20380078256130219,-1.6962604522705078,-0.0050253327935934067,0.16705645620822906,-10.008329391479492,0.00052635557949542999,8
-0.92787665128707886,-0.047306515276432037,0.50128680467605591,-0.21021454036235809,-1.69617760181427,0.016537405550479889,-0.14735741913318634,-9.996159553527832,0.095421366393566132,8
-0.7128366231918335,-0.08610823005437851,0.49829992651939392,-0.093013450503349304,-1.8401405811309814,-0.0011121223215013742,-0.095111794769763947,-9.0173683166503906,0.12668313086032867,8
-0.4875141978263855,-0.076492585241794586,0.48751401901245117,0.052134398370981216,-1.8191348314285278,-0.05213535949587822,-0.35109344124794006,-9.369542121887207,0.35109120607376099,8
-0.28984856605529785,-0.054770413786172867,0.48485350608825684,0.070220403373241425,-1.7490047216415405,-0.060053594410419464,-0.02962164394557476,-9.9528722763061523,0.36576366424560547,8
-0.097091950476169586,-0.04464302584528923,0.4817078709602356,0.035558588802814484,-1.6774423122406006,-0.094367347657680511,0.11946591734886169,-10.057965278625488,0.36976528167724609,8
0.097091928124427795,-0.044643007218837738,0.48170772194862366,-0.03555900976061821,-1.6774420738220215,-0.094368577003479004,-0.11946770548820496,-10.057965278625488,0.36977803707122803,8
0.28984853625297546,-0.054770462214946747,0.48485350608825684,-0.070221021771430969,-1.7490049600601196,-0.060055997222661972,0.029616726562380791,-9.9528684616088867,0.36569961905479431,8
0.48751404881477356,-0.076492764055728912,0.48751407861709595,-0.05213499441742897,-1.8191357851028442,-0.052134882658720016,0.35108852386474609,-9.3695344924926758,0.35108962655067444,8
0.7128366231918335,-0.08610871434211731,0.49830004572868347,0.093013472855091095,-1.8401428461074829,-0.0011112659703940153,0.095111794769763947,-9.0173606872558594,0.12668342888355255,8
0.92787671089172363,-0.047306742519140244,0.50128686428070068,0.21021507680416107,-1.6961791515350342,0.016537880524992943,0.14735965430736542,-9.996159553527832,0.095422595739364624,8
-0.92333292961120605,-0.041917812079191208,0.70822286605834961,-0.18006393313407898,-1.6577308177947998,0.078762799501419067,-0.18397672474384308,-10.020664215087891,0.23522926867008209,8
-0.71605044603347778,-0.077401652932167053,0.71604979038238525,-0.10790389776229858,-1.7897423505783081,0.10790093988180161,-0.0099682053551077843,-9.1066856384277344,0.0099865337833762169,8
-0.49830010533332825,-0.08610863983631134,0.71283656358718872,0.0011111267376691103,-1.8401421308517456,0.093012183904647827,-0.12668296694755554,-9.0173578262329102,0.095110900700092316,8
-0.29647484421730042,-0.079699523746967316,0.70499330759048462,0.025835709646344185,-1.8158750534057617,0.052644442766904831,-0.010521410964429379,-9.213984489440918,0.22897368669509888,8
-0.099120184779167175,-0.076757505536079407,0.70197468996047974,0.010325344279408455,-1.7955479621887207,0.02887561172246933,0.042881563305854797,-9.234583854675293,0.20730842649936676,8
0.099120140075683594,-0.076757423579692841,0.70197474956512451,-0.010325719602406025,-1.7955477237701416,0.028875775635242462,-0.042883016169071198,-9.234583854675293,0.2073083221912384,8
0.29647478461265564,-0.079699650406837463,0.70499342679977417,-0.02583615668118,-1.8158755302429199,0.052645303308963776,0.010520516894757748,-9.2139806747436523,0.22897323966026306,8
0.49830001592636108,-0.08610883355140686,0.71283668279647827,-0.0011113524669781327,-1.8401434421539307,0.093014337122440338,0.12668244540691376,-9.0173578262329102,0.095111571252346039,8
0.71605044603347778,-0.077401958405971527,0.71605068445205688,0.10790412127971649,-1.7897439002990723,0.10790472477674484,0.0099686523899435997,-9.1066818237304688,0.0099702170118689537,8
0.92333298921585083,-0.041917912662029266,0.70822316408157349,0.18006493151187897,-1.6577318906784058,0.078764326870441437,0.18397806584835052,-10.020668029785156,0.23523306846618652,8
-0.91093897819519043,-0.029180057346820831,0.91093891859054565,-0.11465556919574738,-1.5887055397033691,0.11465520411729813,-0.43586564064025879,-10.265113830566406,0.43586340546607971,8
-0.70822298526763916,-0.041917853057384491,0.92333269119262695,-0.078763827681541443,-1.6577311754226685,0.18006342649459839,-0.23522971570491791,-10.020664215087891,0.183974489569664,8
-0.50128686428070068,-0.047306731343269348,0.92787659168243408,-0.016537889838218689,-1.6961789131164551,0.21021415293216705,-0.095422208309173584,-9.9961557388305664,0.14735563099384308,8
-0.29945585131645203,-0.04723995178937912,0.92702865600585938,0.0050251311622560024,-1.6962604522705078,0.20380018651485443,-0.00052683055400848389,-10.008329391479492,0.16705377399921417,8
-0.099765494465827942,-0.046635463833808899,0.9261552095413208,0.0030883047729730606,-1.6897304058074951,0.19521646201610565,0.01576419360935688,-9.9908628463745117,0.15563248097896576,8
0.099765479564666748,-0.046635463833808899,0.92615532875061035,-0.0030885208398103714,-1.6897304058074951,0.19521705806255341,-0.015765326097607613,-9.9908628463745117,0.15563426911830902,8
0.29945582151412964,-0.047239970415830612,0.92702895402908325,-0.0050253625959157944,-1.6962605714797974,0.20380258560180664,0.00052617397159337997,-10.008329391479492,0.16705645620822906,8
0.50128686428070068,-0.047306764870882034,0.92787766456604004,0.016537861898541451,-1.6961792707443237,0.2102191150188446,0.095422402024269104,-9.996159553527832,0.14733864367008209,8
0.70822298526763916,-0.041917942464351654,0.92333316802978516,0.078764155507087708,-1.6577320098876953,0.18006634712219238,0.23523150384426117,-10.020664215087891,0.18397895991802216,8
0.91093897819519043,-0.029180096462368965,0.91093891859054565,0.11465635895729065,-1.5887062549591064,0.11465661972761154,0.4358690083026886,-10.265117645263672,0.43587124347686768,8
-0.92420554161071777,0.17298245429992676,-0.92420542240142822,-0.19135218858718872,-1.5594406127929688,-0.19135148823261261,-0.24338273704051971,-10.092100143432617,-0.24338050186634064,8
-0.71857970952987671,0.16275489330291748,-0.96109747886657715,-0.12909026443958282,-1.6055676937103271,-0.33199340105056763,-0.0415666364133358,-9.8490848541259766,0.68625384569168091,8
-0.5023503303527832,0.15868633985519409,-0.97464156150817871,-0.026032119989395142,-1.632590651512146,-0.40614888072013855,-0.10956543684005737,-9.8303594589233398,0.84188276529312134,8
-0.29929810762405396,0.15858641266822815,-0.97380262613296509,0.0040195873007178307,-1.6343133449554443,-0.40648195147514343,-0.035979472100734711,-9.840184211730957,0.73160731792449951,8
-0.099720366299152374,0.15888711810112,-0.97276854515075684,0.0028859784360975027,-1.6309585571289062,-0.399924635887146,0.0052520651370286942,-9.8290977478027344,0.69327676296234131,8
0.099720366299152374,0.15888711810112,-0.97276854515075684,-0.0028860934544354677,-1.6309585571289062,-0.39992475509643555,-0.005253378301858902,-9.8290977478027344,0.69327408075332642,8
0.29929804801940918,0.15858644247055054,-0.97380274534225464,-0.0040204995311796665,-1.6343131065368652,-0.40648269653320312,0.035978801548480988,-9.840184211730957,0.73160463571548462,8
0.50234955549240112,0.15868633985519409,-0.97464168071746826,0.026029232889413834,-1.6325905323028564,-0.40615105628967285,0.10958516597747803,-9.8303594589233398,0.84188187122344971,8
0.71857959032058716,0.16275487840175629,-0.96109849214553833,0.12908977270126343,-1.6055680513381958,-0.33199799060821533,0.041567083448171616,-9.8490886688232422,0.68627172708511353,8
0.92420583963394165,0.17298242449760437,-0.92420578002929688,0.19135396182537079,-1.559441089630127,-0.19135411083698273,0.24338050186634064,-10.092103958129883,-0.24338184297084808,8
-0.96109753847122192,0.16275499761104584,-0.71857953071594238,-0.33199357986450195,-1.6055670976638794,-0.12908868491649628,0.68625384569168091,-9.8490886688232422,-0.0415666364133358,8
-0.74570959806442261,0.13114315271377563,-0.74570870399475098,-0.2163960188627243,-1.7156968116760254,-0.21639271080493927,0.68091267347335815,-9.0504522323608398,0.68089526891708374,8
-0.49290788173675537,0.1255025714635849,-0.73305720090866089,0.011991402134299278,-1.7658200263977051,-0.17880645394325256,-0.306683748960495,-9.1572399139404297,0.28390198945999146,8
-0.29199683666229248,0.12832112610340118,-0.70957928895950317,0.044039931148290634,-1.7547059059143066,-0.079756908118724823,-0.13030114769935608,-9.2578086853027344,-0.20526005327701569,8
-0.098570652306079865,0.1292072981595993,-0.70243221521377563,0.015793781727552414,-1.7457995414733887,-0.035215511918067932,0.054817672818899155,-9.2374382019042969,-0.23454837501049042,8
0.098570652306079865,0.1292072981595993,-0.70243221521377563,-0.015793800354003906,-1.7457995414733887,-0.035215526819229126,-0.05481904000043869,-9.2374410629272461,-0.23454788327217102,8
0.29199677705764771,0.12832118570804596,-0.70957928895950317,-0.04404059424996376,-1.754705548286438,-0.079757213592529297,0.13029970228672028,-9.2578086853027344,-0.20526139438152313,8
0.49290737509727478,0.12550289928913116,-0.73305726051330566,-0.011993877589702606,-1.7658191919326782,-0.17880763113498688,0.30669313669204712,-9.1572465896606445,0.28389975428581238,8
0.74570947885513306,0.13114278018474579,-0.74570947885513306,0.21639575064182281,-1.7156984806060791,-0.21639591455459595,-0.68091177940368652,-9.0504484176635742,0.68091046810150146,8
0.96109837293624878,0.16275489330291748,-0.71857959032058716,0.33199688792228699,-1.6055680513381958,-0.12908975780010223,-0.68627172708511353,-9.8490924835205078,-0.041567977517843246,8
-0.97464072704315186,0.15868681669235229,-0.50234955549240112,-0.40614566206932068,-1.6325887441635132,-0.026028942316770554,0.84186488389968872,-9.8303709030151367,-0.10958416014909744,8
-0.73305720090866089,0.12550336122512817,-0.49290737509727478,-0.17880682647228241,-1.7658168077468872,0.011994348838925362,0.28390243649482727,-9.1572542190551758,-0.30669566988945007,8
-0.45945629477500916,0.1481187492609024,-0.45945540070533752,0.11854124069213867,-1.6858822107315063,0.11854444444179535,-1.0480842590332031,-9.7741909027099609,-1.0481044054031372,8
-0.27502056956291199,0.15945611894130707,-0.45826518535614014,0.14130088686943054,-1.6331771612167358,0.068224892020225525,-0.29829737544059753,-10.071054458618164,-0.94849902391433716,8
-0.090943358838558197,0.16198141872882843,-0.44506263732910156,0.098845101892948151,-1.6028212308883667,0.19644293189048767,0.045348998159170151,-9.8959341049194336,-1.3132076263427734,8
0.090943239629268646,0.16198143362998962,-0.44506236910820007,-0.098845593631267548,-1.6028211116790771,0.19644795358181,-0.045333575457334518,-9.8959379196166992,-1.3131853342056274,8
0.27502083778381348,0.15945611894130707,-0.45826536417007446,-0.14129945635795593,-1.6331768035888672,0.06822504848241806,0.29833671450614929,-10.071057319641113,-0.94853723049163818,8
0.45945557951927185,0.14811877906322479,-0.45945510268211365,-0.11854632943868637,-1.6858807802200317,0.11854826658964157,1.0481194257736206,-9.7741546630859375,-1.0481283664703369,8
0.73305720090866089,0.12550291419029236,-0.49290698766708374,0.17880658805370331,-1.7658189535140991,0.011995327658951283,-0.28390154242515564,-9.1572465896606445,-0.30670285224914551,8
0.97464084625244141,0.15868633985519409,-0.50234955549240112,0.40614655613899231,-1.6325907707214355,-0.026028934866189957,-0.84186398983001709,-9.8303594589233398,-0.10958510637283325,8
-0.97380173206329346,0.1585865318775177,-0.29929804801940918,-0.4064776599407196,-1.6343123912811279,0.0040205195546150208,0.73159211874008179,-9.840184211730957,-0.035977806895971298,8
-0.70957928895950317,0.12832134962081909,-0.29199677705764771,-0.079756855964660645,-1.7547043561935425,0.044040579348802567,-0.20526228845119476,-9.2578086853027344,-0.13029970228672028,8
-0.45826578140258789,0.15945614874362946,-0.27502080798149109,0.06822233647108078,-1.6331771612167358,0.14129936695098877,-0.94848960638046265,-10.071054458618164,-0.29834297299385071,8
-0.27436056733131409,0.17528299987316132,-0.2743605375289917,0.20662295818328857,-1.7064061164855957,0.20662404596805573,-0.40789467096328735,-13.209556579589844,-0.40789556503295898,8
-0.082981109619140625,0.17735980451107025,-0.28454127907752991,0.17760884761810303,-1.5453770160675049,0.14643482863903046,-0.28718587756156921,-10.636964797973633,0.19687502086162567,8
0.082981042563915253,0.17735980451107025,-0.28454127907752991,-0.17760741710662842,-1.5453768968582153,0.14643499255180359,0.28718319535255432,-10.636967658996582,0.19687680900096893,8
0.27436041831970215,0.17528297007083893,-0.27436041831970215,-0.2066250741481781,-1.7064095735549927,0.20662614703178406,0.40791255235671997,-13.209628105163574,-0.40791165828704834,8
0.45826545357704163,0.15945613384246826,-0.27502033114433289,-0.068225853145122528,-1.6331766843795776,0.1413026750087738,0.94847512245178223,-10.071054458618164,-0.29829245805740356,8
0.70957928895950317,0.12832120060920715,-0.29199674725532532,0.07975662499666214,-1.7547053098678589,0.044041238725185394,0.20526161789894104,-9.2578086853027344,-0.13029903173446655,8
0.97380173206329346,0.15858641266822815,-0.29929801821708679,0.40647795796394348,-1.6343133449554443,0.0040207230485975742,-0.73158943653106689,-9.840184211730957,-0.035978060215711594,8
-0.97276842594146729,0.15888717770576477,-0.09972032904624939,-0.39992296695709229,-1.630958080291748,0.0028860152233392,0.69328212738037109,-9.8290977478027344,0.0052531757391989231,8
-0.70243239402770996,0.12920738756656647,-0.098570622503757477,-0.035215813666582108,-1.7457987070083618,0.015793614089488983,-0.23454837501049042,-9.2374382019042969,0.054818704724311829,8
-0.44506317377090454,0.16198143362998962,-0.090943396091461182,0.19644045829772949,-1.6028212308883667,0.098844736814498901,-1.3132009506225586,-9.8959417343139648,0.045350786298513412,8
-0.28454136848449707,0.17735980451107025,-0.08298107236623764,0.14643339812755585,-1.5453771352767944,0.17760850489139557,0.19687233865261078,-10.636967658996582,-0.28720062971115112,8
-0.093037530779838562,0.17468932271003723,-0.09303748607635498,0.088301658630371094,-1.7364000082015991,0.088301956653594971,0.21372644603252411,-17.272388458251953,0.21372666954994202,8
0.093037500977516174,0.17468932271003723,-0.09303746372461319,-0.088301852345466614,-1.7364000082015991,0.088301956653594971,-0.2137463390827179,-17.272388458251953,0.21374611556529999,8
0.28454133868217468,0.17735980451107025,-0.082980990409851074,-0.14643396437168121,-1.5453768968582153,0.17760752141475677,-0.19687636196613312,-10.636967658996582,-0.28718408942222595,8
0.4450627863407135,0.16198141872882843,-0.090943232178688049,-0.19644615054130554,-1.6028212308883667,0.098845347762107849,1.3131754398345947,-9.8959341049194336,0.045340951532125473,8
0.70243221521377563,0.12920735776424408,-0.09857061505317688,0.035215359181165695,-1.7457990646362305,0.015793841332197189,0.23454597592353821,-9.2374382019042969,0.054819628596305847,8
0.97276842594146729,0.15888714790344238,-0.09972032904624939,0.39992314577102661,-1.6309583187103271,0.0028860555030405521,-0.6932794451713562,-9.8290977478027344,0.0052532036788761616,8
-0.97276842594146729,0.15888717770576477,0.099720388650894165,-0.39992302656173706,-1.630958080291748,-0.0028861223254352808,0.69328123331069946,-9.8290977478027344,-0.0052536786533892155,8
-0.70243239402770996,0.12920773029327393,0.098570674657821655,-0.035215768963098526,-1.7457977533340454,-0.015793908387422562,-0.23454804718494415,-9.2374486923217773,-0.054820604622364044,8
-0.44506317377090454,0.16198141872882843,0.090943366289138794,0.1964421421289444,-1.6028214693069458,-0.09884633868932724,-1.3132272958755493,-9.8959417343139648,-0.045409347862005234,8
-0.28454139828681946,0.17735980451107025,0.0829811692237854,0.14643371105194092,-1.5453771352767944,-0.17761039733886719,0.19687546789646149,-10.636967658996582,0.28707948327064514,8
-0.093037515878677368,0.17468932271003723,0.093037530779838562,0.088302254676818848,-1.7364000082015991,-0.088302500545978546,0.21376243233680725,-17.272388458251953,-0.21376600861549377,8
0.093037515878677368,0.17468932271003723,0.093037545680999756,-0.08830154687166214,-1.7364000082015991,-0.088301412761211395,-0.21373158693313599,-17.272388458251953,-0.21373181045055389,8
0.28454133868217468,0.17735980451107025,0.082981079816818237,-0.14643432199954987,-1.5453770160675049,-0.17760872840881348,-0.19687770307064056,-10.636964797973633,0.28716039657592773,8
0.44506296515464783,0.16198143362998962,0.090943321585655212,-0.19644360244274139,-1.6028212308883667,-0.0988459512591362,1.3132027387619019,-9.8959417343139648,-0.045367103070020676,8
0.70243221521377563,0.12920767068862915,0.098570592701435089,0.035215318202972412,-1.7457982301712036,-0.015794284641742706,0.23454631865024567,-9.2374486923217773,-0.054819375276565552,8
0.97276842594146729,0.15888717770576477,0.099720373749732971,0.39992311596870422,-1.6309581995010376,-0.0028863046318292618,-0.6932794451713562,-9.8290977478027344,-0.0052536926232278347,8
-0.97380173206329346,0.1585865318775177,0.29929810762405396,-0.40647774934768677,-1.6343123912811279,-0.0040206131525337696,0.73159033060073853,-9.840184211730957,0.035977613180875778,8
-0.70957928895950317,0.12832134962081909,0.29199680685997009,-0.079756744205951691,-1.7547043561935425,-0.044040855020284653,-0.20526206493377686,-9.2578086853027344,0.1302974671125412,8
-0.45826566219329834,0.15945608913898468,0.27502050995826721,0.068222016096115112,-1.6331779956817627,-0.14130209386348724,-0.94862663745880127,-10.071085929870605,0.29828888177871704,8
-0.27436038851737976,0.17528297007083893,0.27436035871505737,0.20662660896778107,-1.7064069509506226,-0.20662723481655121,-0.40784236788749695,-13.209582328796387,0.40784236788749695,8
-0.082981184124946594,0.17735980451107025,0.28454136848449707,0.17760953307151794,-1.5453770160675049,-0.14643430709838867,-0.28709647059440613,-10.636964797973633,-0.19687546789646149,8
0.082981027662754059,0.17735980451107025,0.28454136848449707,-0.17760857939720154,-1.5453770160675049,-0.14643432199954987,0.28718140721321106,-10.636964797973633,-0.1968759149312973,8
0.27436023950576782,0.17528294026851654,0.2743602991104126,-0.20662921667098999,-1.706409215927124,-0.20662902295589447,0.40785309672355652,-13.209617614746094,0.40785443782806396,8
0.45826512575149536,0.15945619344711304,0.27502045035362244,-0.068228423595428467,-1.6331757307052612,-0.14130252599716187,0.94850349426269531,-10.071025848388672,0.29828754067420959,8
0.70957928895950317,0.12832126021385193,0.29199647903442383,0.079756468534469604,-1.7547049522399902,-0.044041801244020462,0.2052605003118515,-9.2578086853027344,0.13030919432640076,8
0.97380173206329346,0.15858641266822815,0.2992979884147644,0.40647789835929871,-1.6343132257461548,-0.0040208571590483189,-0.73158943653106689,-9.840184211730957,0.035978700965642929,8
-0.97464072704315186,0.15868681669235229,0.50234955549240112,-0.40614551305770874,-1.6325887441635132,0.026028862223029137,0.84186488389968872,-9.8303709030151367,0.10958348959684372,8
-0.73305720090866089,0.12550307810306549,0.49290737509727478,-0.17880634963512421,-1.765817403793335,-0.011994476430118084,0.28390377759933472,-9.1572437286376953,0.30669301748275757,8
-0.45945614576339722,0.14811877906322479,0.45945563912391663,0.1185436025261879,-1.6858822107315063,-0.11854786425828934,-1.0481041669845581,-9.7741909027099609,1.0480425357818604,8
-0.2750205397605896,0.15945611894130707,0.45826533436775208,0.14130160212516785,-1.6331778764724731,-0.068223029375076294,-0.2982906699180603,-10.071089744567871,0.94862395524978638,8
-0.090943336486816406,0.1619814932346344,0.44506269693374634,0.098846301436424255,-1.6028209924697876,-0.19644363224506378,0.045399513095617294,-9.8959417343139648,1.3132367134094238,8
0.090943276882171631,0.1619814932346344,0.44506293535232544,-0.098846234381198883,-1.6028209924697876,-0.19644369184970856,-0.045366879552602768,-9.8959417343139648,1.3132063150405884,8
0.27502036094665527,0.15945619344711304,0.45826524496078491,-0.14130270481109619,-1.6331757307052612,-0.068227559328079224,0.29828664660453796,-10.071025848388672,0.94849300384521484,8
0.45945575833320618,0.1481187641620636,0.45945575833320618,-0.11854663491249084,-1.6858808994293213,-0.1185464933514595,1.0480172634124756,-9.7741584777832031,1.0480192899703979,8
0.73305720090866089,0.12550300359725952,0.49290737509727478,0.1788066178560257,-1.7658185958862305,-0.011994054540991783,-0.28390198945999146,-9.1572437286376953,0.30669313669204712,8
0.97464084625244141,0.15868633985519409,0.50234955549240112,0.40614643692970276,-1.6325905323028564,0.026029113680124283,-0.84186488389968872,-9.8303594589233398,0.1095844954252243,8
-0.9610973596572876,0.16275502741336823,0.71857947111129761,-0.33199307322502136,-1.6055666208267212,0.12908844649791718,0.68625473976135254,-9.8490886688232422,0.041564848273992538,8
-0.74570935964584351,0.1311432421207428,0.74570876359939575,-0.21639502048492432,-1.7156963348388672,0.21639221906661987,0.68091315031051636,-9.0504560470581055,-0.680897057056427,8
-0.49290740489959717,0.12550301849842072,0.73305708169937134,0.011993688531219959,-1.7658179998397827,0.1788046658039093,-0.30669155716896057,-9.1572437286376953,-0.2839033305644989,8
-0.29199674725532532,0.12832130491733551,0.70957851409912109,0.044040903449058533,-1.7547045946121216,0.079753793776035309,-0.13029858469963074,-9.2578086853027344,0.20527905225753784,8
-0.098570652306079865,0.12920783460140228,0.70243227481842041,0.015793874859809875,-1.7457973957061768,0.035214897245168686,0.054818622767925262,-9.2374486923217773,0.23454782366752625,8
0.098570473492145538,0.12920783460140228,0.70243227481842041,-0.015794608741998672,-1.7457973957061768,0.035215061157941818,-0.054817002266645432,-9.2374486923217773,0.23454709351062775,8
0.29199633002281189,0.12832130491733551,0.70957857370376587,-0.044042184948921204,-1.7547048330307007,0.079754643142223358,0.13030752539634705,-9.2578086853027344,0.20527681708335876,8
0.49290737509727478,0.12550297379493713,0.73305726051330566,-0.011994167231023312,-1.7658188343048096,0.17880731821060181,0.30669194459915161,-9.1572465896606445,-0.28390198945999146,8
0.74570947885513306,0.13114282488822937,0.74570959806442261,0.21639552712440491,-1.7156980037689209,0.21639598906040192,-0.68091315031051636,-9.0504484176635742,-0.68091225624084473,8
0.961098313331604,0.16275489330291748,0.71857959032058716,0.33199632167816162,-1.6055676937103271,0.12908953428268433,-0.68627440929412842,-9.8490848541259766,0.041567530483007431,8
-0.92420554161071777,0.17298249900341034,0.924205482006073,-0.19135165214538574,-1.5594398975372314,0.19135174155235291,-0.24337916076183319,-10.092097282409668,0.24337692558765411,8
-0.71857953071594238,0.16275499761104584,0.9610980749130249,-0.12908896803855896,-1.6055668592453003,0.33199450373649597,-0.041565295308828354,-9.8490848541259766,-0.68627619743347168,8
-0.50234955549240112,0.15868636965751648,0.97464066743850708,-0.02602912113070488,-1.6325901746749878,0.40614521503448486,-0.10958371311426163,-9.8303594589233398,-0.84186667203903198,8
-0.29929801821708679,0.15858650207519531,0.97380161285400391,0.0040206769481301308,-1.6343127489089966,0.40647715330123901,-0.035978339612483978,-9.840184211730957,-0.73159033060073853,8
-0.099720358848571777,0.15888720750808716,0.97276830673217773,0.0028861530590802431,-1.6309578418731689,0.39992237091064453,0.0052528893575072289,-9.8290977478027344,-0.69328212738037109,8
0.09972032904624939,0.15888720750808716,0.97276836633682251,-0.002886409405618906,-1.6309579610824585,0.39992287755012512,-0.0052533573471009731,-9.8290977478027344,-0.6932794451713562,8
0.29929792881011963,0.15858650207519531,0.97380244731903076,-0.0040209349244832993,-1.6343127489089966,0.4064810574054718,0.03597867488861084,-9.840184211730957,-0.73160642385482788,8
0.50234955549240112,0.15868635475635529,0.97464168071746826,0.026029061526060104,-1.6325904130935669,0.40615043044090271,0.10958410054445267,-9.8303594589233398,-0.84188276529312134,8
0.71857953071594238,0.16275489330291748,0.96109837293624878,0.12908940017223358,-1.6055678129196167,0.33199751377105713,0.0415666364133358,-9.8490848541259766,-0.68627262115478516,8
0.92420554161071777,0.17298245429992676,0.92420554161071777,0.19135311245918274,-1.5594409704208374,0.19135327637195587,0.24338184297084808,-10.092103958129883,0.24338318407535553,8
-0.93099409341812134,0.37935799360275269,-0.93099403381347656,-0.24631960690021515,-1.504120945930481,-0.24631893634796143,-0.28821450471878052,-9.9859170913696289,-0.28821226954460144,8
-0.72339862585067749,0.37792840600013733,-0.9778105616569519,-0.16524641215801239,-1.5142223834991455,-0.43480831384658813,-0.067990869283676147,-9.9622316360473633,0.80947363376617432,8
-0.50300079584121704,0.37733376026153564,-0.99492847919464111,-0.033638898283243179,-1.5205891132354736,-0.5365174412727356,-0.14015737175941467,-9.9834461212158203,0.92097753286361694,8
-0.2993958592414856,0.37718230485916138,-0.99453860521316528,0.0021641524508595467,-1.522520899772644,-0.54390412569046021,-0.051178213208913803,-9.9920616149902344,0.75953179597854614,8
-0.099784262478351593,0.37709495425224304,-0.99380016326904297,0.0022745758760720491,-1.523179292678833,-0.54055905342102051,0.0028727364260703325,-9.99102783203125,0.71158283948898315,8
0.099784292280673981,0.37709495425224304,-0.99380016326904297,-0.0022744343150407076,-1.5231791734695435,-0.54055911302566528,-0.0028741823043674231,-9.99102783203125,0.71158105134963989,8
0.2993958592414856,0.37718233466148376,-0.99453860521316528,-0.0021647089160978794,-1.5225205421447754,-0.54390430450439453,0.05117647722363472,-9.9920616149902344,0.75953000783920288,8
0.50300061702728271,0.37733379006385803,-0.99492865800857544,0.033637501299381256,-1.5205886363983154,-0.53651875257492065,0.14015915989875793,-9.9834461212158203,0.92097574472427368,8
0.72339862585067749,0.37792843580245972,-0.97781145572662354,0.16524621844291687,-1.5142220258712769,-0.43481281399726868,0.067990869283676147,-9.9622316360473633,0.80949151515960693,8
0.93099498748779297,0.37935799360275269,-0.93099492788314819,0.24632278084754944,-1.5041207075119019,-0.24632276594638824,0.28819036483764648,-9.9859132766723633,-0.28819036483764648,8
-0.97781062126159668,0.37792840600013733,-0.72339826822280884,-0.43480855226516724,-1.5142221450805664,-0.16524492204189301,0.80947542190551758,-9.9622316360473633,-0.067989528179168701,8
-0.75490653514862061,0.3761725127696991,-0.7549055814743042,-0.28656724095344543,-1.5278465747833252,-0.28656315803527832,0.60727798938751221,-9.9217014312744141,0.60726100206375122,8
-0.49031376838684082,0.37873303890228271,-0.72794121503829956,0.025961810722947121,-1.5261954069137573,-0.18824295699596405,-0.33323824405670166,-10.062067031860352,-0.021252481266856194,8
-0.29359737038612366,0.37601202726364136,-0.70599102973937988,0.049063012003898621,-1.5339771509170532,-0.064961157739162445,-0.017748400568962097,-9.9934597015380859,-0.28119027614593506,8
-0.098829187452793121,0.37449908256530762,-0.70132684707641602,0.014784579165279865,-1.5413756370544434,-0.022117715328931808,0.07197117805480957,-9.9594202041625977,-0.18367497622966766,8
0.0988292396068573,0.37449914216995239,-0.70132684707641602,-0.014784242957830429,-1.5413752794265747,-0.022117717191576958,-0.071973606944084167,-9.9594202041625977,-0.18367353081703186,8
0.29359760880470276,0.37601244449615479,-0.70599102973937988,-0.049063418060541153,-1.5339756011962891,-0.064961336553096771,0.017736777663230896,-9.9934701919555664,-0.2811926007270813,8
0.49031287431716919,0.37873348593711853,-0.72794127464294434,-0.025965802371501923,-1.526193380355835,-0.18824326992034912,0.3332560658454895,-10.062070846557617,-0.021254716441035271,8
0.75490593910217285,0.37617284059524536,-0.75490593910217285,0.28656551241874695,-1.5278452634811401,-0.28656548261642456,-0.60725653171539307,-9.9217119216918945,0.60725563764572144,8
0.97781151533126831,0.37792843580245972,-0.72339856624603271,0.43481236696243286,-1.5142220258712769,-0.16524612903594971,-0.80949240922927856,-9.9622316360473633,-0.067990869283676147,8
-0.99492824077606201,0.37733379006385803,-0.50300061702728271,-0.53651463985443115,-1.5205886363983154,-0.033637315034866333,0.92098468542098999,-9.9834461212158203,-0.1401573121547699,8
-0.72794145345687866,0.3787330687046051,-0.4903128445148468,-0.18824410438537598,-1.5261950492858887,0.025966083630919456,-0.021255163475871086,-10.062067031860352,-0.33325734734535217,8
-0.44158738851547241,0.39319032430648804,-0.44158634543418884,0.25429147481918335,-1.4550362825393677,0.25429540872573853,-1.0524245500564575,-10.405954360961914,-1.0524531602859497,8
-0.27916064858436584,0.38907513022422791,-0.42434623837471008,0.17644616961479187,-1.4329992532730103,0.32439357042312622,0.21231828629970551,-10.349681854248047,-1.4493110179901123,8
-0.095151752233505249,0.38068348169326782,-0.4145658016204834,0.064082510769367218,-1.4813153743743896,0.42294138669967651,0.27424737811088562,-9.9559125900268555,-1.4277818202972412,8
0.09515177458524704,0.3806835412979126,-0.41456618905067444,-0.064082019031047821,-1.4813148975372314,0.42293661832809448,-0.27425318956375122,-9.9559049606323242,-1.4277979135513306,8
0.27916055917739868,0.38907539844512939,-0.42434605956077576,-0.17644710838794708,-1.4329984188079834,0.32439437508583069,-0.21232007443904877,-10.349685668945312,-1.4493297338485718,8
0.44158679246902466,0.39319056272506714,-0.44158628582954407,-0.25429409742355347,-1.4550331830978394,0.25429600477218628,1.0524334907531738,-10.405890464782715,-1.0524513721466064,8
0.72794127464294434,0.37873345613479614,-0.49031275510787964,0.18824310600757599,-1.5261938571929932,0.025966435670852661,0.021254716441035271,-10.062073707580566,-0.33325663208961487,8
0.99492841958999634,0.37733379006385803,-0.50300061702728271,0.53651690483093262,-1.520588755607605,-0.033637378364801407,-0.92097753286361694,-9.9834499359130859,-0.14015893638134003,8
-0.99453747272491455,0.37718230485916138,-0.2993958592414856,-0.54389870166778564,-1.5225207805633545,0.0021645007655024529,0.75951927900314331,-9.9920616149902344,-0.051174476742744446,8
-0.70599102973937988,0.37601199746131897,-0.29359802603721619,-0.064961910247802734,-1.5339772701263428,0.049062572419643402,-0.28119921684265137,-9.9934597015380859,-0.017725042998790741,8
-0.42434686422348022,0.38907501101493835,-0.27916046977043152,0.32438984513282776,-1.4330015182495117,0.17644745111465454,-1.4492957592010498,-10.349671363830566,0.21231649816036224,8
0.42434674501419067,0.38907536864280701,-0.27916035056114197,-0.32439190149307251,-1.4329988956451416,0.17644800245761871,1.4493110179901123,-10.349692344665527,0.21231605112552643,8
0.70599108934402466,0.37601202726364136,-0.29359760880470276,0.064961418509483337,-1.5339770317077637,0.049063615500926971,0.28119540214538574,-9.9934597015380859,-0.017735213041305542,8
0.9945378303527832,0.37718230485916138,-0.2993958592414856,0.54390043020248413,-1.5225207805633545,0.002164709847420454,-0.75951391458511353,-9.9920616149902344,-0.051175728440284729,8
-0.99379992485046387,0.37709483504295349,-0.099784299731254578,-0.54055702686309814,-1.5231796503067017,0.0022742096334695816,0.71158820390701294,-9.9910240173339844,0.0028747690375894308,8
-0.70132690668106079,0.3744986355304718,-0.098829343914985657,-0.022118162363767624,-1.5413769483566284,0.014783677645027637,-0.18367800116539001,-9.9594097137451172,0.071978107094764709,8
-0.41456645727157593,0.38068348169326782,-0.095151737332344055,0.42293804883956909,-1.4813164472579956,0.064082540571689606,-1.4277719259262085,-9.9559192657470703,0.27425497770309448,8
0.41456678509712219,0.38068348169326782,-0.095151737332344055,-0.42293363809585571,-1.4813157320022583,0.064082138240337372,1.4277925491333008,-9.9559154510498047,0.27425587177276611,8
0.70132696628570557,0.37449866533279419,-0.098829306662082672,0.022117968648672104,-1.5413767099380493,0.014783881604671478,0.18367369472980499,-9.9594097137451172,0.071977049112319946,8
0.99380016326904297,0.37709489464759827,-0.099784284830093384,0.54055792093276978,-1.5231794118881226,0.0022742711007595062,-0.71158283948898315,-9.99102783203125,0.002873965771868825,8
-0.99380004405975342,0.37709453701972961,0.099784314632415771,-0.5405573844909668,-1.5231804847717285,-0.0022745027672499418,0.71158820390701294,-9.9910135269165039,-0.0028745036106556654,8
-0.70132690668106079,0.3744986355304718,0.09882933646440506,-0.022118009626865387,-1.541377067565918,-0.01478414423763752,-0.18367570638656616,-9.9594097137451172,-0.071976430714130402,8
-0.41456654667854309,0.38068306446075439,0.095151819288730621,0.42293670773506165,-1.4813172817230225,-0.064082443714141846,-1.427741527557373,-9.9559087753295898,-0.27427944540977478,8
0.41456663608551025,0.38068348169326782,0.095151722431182861,-0.42293539643287659,-1.4813157320022583,-0.064082667231559753,1.4278112649917603,-9.9559125900268555,-0.2742479145526886,8
0.70132690668106079,0.37449869513511658,0.098829172551631927,0.022117860615253448,-1.5413767099380493,-0.014784923754632473,0.18367615342140198,-9.9594097137451172,-0.071973219513893127,8
0.99380016326904297,0.37709495425224304,0.099784277379512787,0.54055792093276978,-1.5231794118881226,-0.0022748000919818878,-0.71158283948898315,-9.99102783203125,-0.0028742731083184481,8
-0.99453765153884888,0.37718230485916138,0.29939591884613037,-0.5438995361328125,-1.5225207805633545,-0.0021645752713084221,0.75951927900314331,-9.9920616149902344,0.051175247877836227,8
-0.70599102973937988,0.37601202726364136,0.2935977578163147,-0.064961105585098267,-1.5339770317077637,-0.049063026905059814,-0.28119125962257385,-9.9934597015380859,0.01773487776517868,8
-0.42434647679328918,0.38907501101493835,0.27916052937507629,0.32439330220222473,-1.4330013990402222,-0.17644736170768738,-1.4492474794387817,-10.349667549133301,-0.21232141554355621,8
0.42434632778167725,0.38907504081726074,0.27916049957275391,-0.3243928849697113,-1.4330035448074341,-0.17644764482975006,1.4493074417114258,-10.349732398986816,-0.21231783926486969,8
0.70599108934402466,0.37601202726364136,0.29359734058380127,0.064961150288581848,-1.5339771509170532,-0.049064133316278458,0.28119528293609619,-9.9934635162353516,0.017746277153491974,8
0.9945378303527832,0.37718230485916138,0.29939588904380798,0.54390048980712891,-1.5225207805633545,-0.0021648844704031944,-0.75951212644577026,-9.9920616149902344,0.051176246255636215,8
-0.99492824077606201,0.3773338794708252,0.50300061702728271,-0.5365147590637207,-1.5205879211425781,0.03363746777176857,0.92098289728164673,-9.9834461212158203,0.14015692472457886,8
-0.72794127464294434,0.37873348593711853,0.49031317234039307,-0.18824276328086853,-1.526193380355835,-0.025964770466089249,-0.021251587197184563,-10.062073707580566,0.33324924111366272,8
-0.44158709049224854,0.39319050312042236,0.44158661365509033,0.25429368019104004,-1.4550340175628662,-0.25429531931877136,-1.0524424314498901,-10.405904769897461,1.0524531602859497,8
-0.27916055917739868,0.38907504081726074,0.42434629797935486,0.17644694447517395,-1.4330028295516968,-0.32439419627189636,0.21231649816036224,-10.349728584289551,1.4492484331130981,8
-0.095151692628860474,0.3806835412979126,0.41456654667854309,0.064081825315952301,-1.4813151359558105,-0.42293673753738403,0.27425283193588257,-9.9559125900268555,1.427746057510376,8
0.095151588320732117,0.3806835412979126,0.41456660628318787,-0.064083203673362732,-1.481315016746521,-0.42293453216552734,-0.27424827218055725,-9.9559125900268555,1.4278112649917603,8
0.27916035056114197,0.38907510042190552,0.42434635758399963,-0.17644825577735901,-1.433003306388855,-0.32439208030700684,-0.21232052147388458,-10.349732398986816,1.4493100643157959,8
0.44158655405044556,0.39319053292274475,0.44158661365509033,-0.25429600477218628,-1.4550338983535767,-0.25429537892341614,1.0524495840072632,-10.405904769897461,1.0524523258209229,8
0.72794127464294434,0.37873345613479614,0.49031320214271545,0.1882430762052536,-1.5261937379837036,-0.025964682921767235,0.02125382237136364,-10.062073707580566,0.3332480788230896,8
0.99492841958999634,0.37733379006385803,0.50300067663192749,0.53651684522628784,-1.5205886363983154,0.033637598156929016,-0.92097753286361694,-9.9834461212158203,0.14015820622444153,8
-0.97781050205230713,0.37792888283729553,0.72339826822280884,-0.43480777740478516,-1.5142203569412231,0.16524472832679749,0.80947542190551758,-9.9622421264648438,0.06798863410949707,8
-0.75490570068359375,0.3761729896068573,0.75490564107894897,-0.28656405210494995,-1.5278443098068237,0.28656277060508728,0.60726189613342285,-9.9217090606689453,-0.60726010799407959,8
-0.49031320214271545,0.37873348593711853,0.72794055938720703,0.025964869186282158,-1.5261930227279663,0.18823927640914917,-0.33324506878852844,-10.062073707580566,0.021265892311930656,8
-0.29359728097915649,0.37601244449615479,0.70599097013473511,0.049064408987760544,-1.5339752435684204,0.064960025250911713,-0.017746053636074066,-9.9934663772583008,0.28119093179702759,8
-0.098829001188278198,0.37449958920478821,0.70132690668106079,0.014785057865083218,-1.5413734912872314,0.022117514163255692,0.071966484189033508,-9.9594278335571289,0.18367448449134827,8
0.098828963935375214,0.37449958920478821,0.70132690668106079,-0.014785530976951122,-1.541373610496521,0.022117499262094498,-0.071969166398048401,-9.9594316482543945,0.18367448449134827,8
0.29359725117683411,0.37601244449615479,0.70599102973937988,-0.049065202474594116,-1.53397536277771,0.064960762858390808,0.017744824290275574,-9.993474006652832,0.28119093179702759,8
0.49031317234039307,0.37873348593711853,0.72794133424758911,-0.025965431705117226,-1.526193380355835,0.1882433146238327,0.33324572443962097,-10.062073707580566,0.021252034232020378,8
0.75490587949752808,0.37617284059524536,0.75490599870681763,0.28656494617462158,-1.5278452634811401,0.28656524419784546,-0.60725921392440796,-9.9217119216918945,-0.60725921392440796,8
0.97781151533126831,0.37792843580245972,0.72339856624603271,0.43481144309043884,-1.5142220258712769,0.16524553298950195,-0.80949240922927856,-9.9622316360473633,0.067990869283676147,8
-0.93099409341812134,0.37935811281204224,0.93099403381347656,-0.24631884694099426,-1.5041197538375854,0.24631884694099426,-0.28821048140525818,-9.9859132766723633,0.28821003437042236,8
-0.72339844703674316,0.37792888283729553,0.9778105616569519,-0.16524522006511688,-1.5142204761505127,0.43480804562568665,-0.067989081144332886,-9.9622421264648438,-0.80947542190551758,8
-0.50300061702728271,0.37733381986618042,0.99492818117141724,-0.033637449145317078,-1.5205881595611572,0.53651517629623413,-0.14015698432922363,-9.9834461212158203,-0.92098110914230347,8
-0.29939582943916321,0.37718236446380615,0.99453747272491455,0.0021651489660143852,-1.5225203037261963,0.54389894008636475,-0.051176257431507111,-9.9920616149902344,-0.75951927900314331,8
-0.099784158170223236,0.37709510326385498,0.99379968643188477,0.0022749311756342649,-1.5231785774230957,0.54055523872375488,0.0028708225581794977,-9.99102783203125,-0.7115899920463562,8
0.099784158170223236,0.37709504365921021,0.99379909038543701,-0.0022750962525606155,-1.5231786966323853,0.54055345058441162,-0.0028717375826090574,-9.99102783203125,-0.71156853437423706,8
0.29939582943916321,0.37718236446380615,0.99453771114349365,-0.0021653587464243174,-1.5225204229354858,0.54389971494674683,0.051175806671380997,-9.9920616149902344,-0.75951749086380005,8
0.50300061702728271,0.37733379006385803,0.99492847919464111,0.033637296408414841,-1.5205886363983154,0.5365174412727356,0.14015686511993408,-9.9834461212158203,-0.92097932100296021,8
0.72339850664138794,0.37792843580245972,0.97781145572662354,0.16524544358253479,-1.5142220258712769,0.43481186032295227,0.067990422248840332,-9.9622316360473633,-0.80949240922927856,8
0.93099415302276611,0.37935799360275269,0.93099409341812134,0.24632035195827484,-1.5041208267211914,0.24632033705711365,0.28821316361427307,-9.9859170913696289,0.2882140576839447,8
-0.93244749307632446,0.58147251605987549,-0.93244725465774536,-0.26381784677505493,-1.4793082475662231,-0.26381731033325195,-0.36558237671852112,-9.8777170181274414,-0.36558058857917786,8
-0.72431641817092896,0.5812908411026001,-0.98014473915100098,-0.17652736604213715,-1.4814120531082153,-0.4603111743927002,-0.12142627686262131,-9.8832855224609375,0.71812295913696289,8
-0.50317001342773438,0.58112573623657227,-0.99739867448806763,-0.036261346191167831,-1.4838882684707642,-0.56575495004653931,-0.15918518602848053,-9.8996143341064453,0.78154021501541138,8
-0.29947403073310852,0.5810774564743042,-0.99725723266601562,0.0013283744920045137,-1.484668493270874,-0.57692110538482666,-0.055597007274627686,-9.9055042266845703,0.59011989831924438,8
-0.099814534187316895,0.58107477426528931,-0.99667996168136597,0.0020453582983464003,-1.4847078323364258,-0.57511377334594727,0.0029280779417604208,-9.9054794311523438,0.53612887859344482,8
0.099814660847187042,0.58107477426528931,-0.99667996168136597,-0.0020448912400752306,-1.4847078323364258,-0.57511377334594727,-0.0029321222100406885,-9.9054794311523438,0.53612887859344482,8
0.29947403073310852,0.5810774564743042,-0.99725723266601562,-0.0013286704197525978,-1.484668493270874,-0.57692116498947144,0.055595610290765762,-9.9055042266845703,0.59011632204055786,8
0.50316983461380005,0.58112573623657227,-0.99739867448806763,0.036260448396205902,-1.4838881492614746,-0.56575548648834229,0.15918557345867157,-9.8996143341064453,0.78153842687606812,8
0.72431635856628418,0.5812908411026001,-0.98014479875564575,0.17652733623981476,-1.4814118146896362,-0.46031275391578674,0.12142761796712875,-9.8832855224609375,0.71811938285827637,8
0.93244755268096924,0.58147251605987549,-0.93244749307632446,0.26381900906562805,-1.4793081283569336,-0.26381886005401611,0.36558327078819275,-9.8777170181274414,-0.36558237671852112,8
-0.98014479875564575,0.5812908411026001,-0.7243162989616394,-0.46031075716018677,-1.4814120531082153,-0.17652635276317596,0.71812474727630615,-9.8832855224609375,-0.12142448872327805,8
-0.75493156909942627,0.58093899488449097,-0.75493121147155762,-0.29630637168884277,-1.4855566024780273,-0.29630404710769653,0.50985842943191528,-9.8969326019287109,0.50985753536224365,8
-0.49002549052238464,0.58043974637985229,-0.72352319955825806,0.028005676344037056,-1.4948042631149292,-0.1736687570810318,-0.34049743413925171,-9.9867429733276367,-0.17760826647281647,8
-0.29452511668205261,0.58002549409866333,-0.70453065633773804,0.048390526324510574,-1.5034397840499878,-0.062697574496269226,0.035458356142044067,-10.0377197265625,-0.36928540468215942,8
-0.098997272551059723,0.58016198873519897,-0.70103931427001953,0.014825901016592979,-1.5000600814819336,-0.020712841302156448,0.09145723283290863,-10.028264045715332,-0.21512432396411896,8
0.098997510969638824,0.58016186952590942,-0.70103925466537476,-0.014825267717242241,-1.5000647306442261,-0.020708853378891945,-0.091465167701244354,-10.028399467468262,-0.21500147879123688,8
0.29452502727508545,0.58002555370330811,-0.70453071594238281,-0.04839145764708519,-1.5034403800964355,-0.062702201306819916,-0.035459250211715698,-10.037734031677246,-0.3694206178188324,8
0.49002456665039062,0.58043974637985229,-0.72352319955825806,-0.028009364381432533,-1.4948040246963501,-0.17366892099380493,0.3405175507068634,-9.9867429733276367,-0.17761363089084625,8
0.75493139028549194,0.58093911409378052,-0.75493127107620239,0.29630571603775024,-1.4855562448501587,-0.29630506038665771,-0.50985217094421387,-9.8969326019287109,0.50985217094421387,8
0.98014485836029053,0.5812908411026001,-0.72431635856628418,0.46031275391578674,-1.4814118146896362,-0.17652706801891327,-0.71812117099761963,-9.8832855224609375,-0.12142761796712875,8
-0.99739772081375122,0.58112573623657227,-0.50316977500915527,-0.5657498836517334,-1.4838882684707642,-0.036260172724723816,0.78152948617935181,-9.8996143341064453,-0.15918362140655518,8
-0.72352397441864014,0.58043974637985229,-0.49002447724342346,-0.17367240786552429,-1.4948043823242188,0.028009660542011261,-0.17760379612445831,-9.9867467880249023,-0.34052127599716187,8
-0.43947982788085938,0.57768601179122925,-0.43947899341583252,0.26811802387237549,-1.5570310354232788,0.2681184709072113,-1.062435507774353,-10.36920166015625,-1.06242835521698,8
-0.28131440281867981,0.57639026641845703,-0.41638174653053284,0.19494953751564026,-1.5826593637466431,0.39421609044075012,0.46238911151885986,-10.364648818969727,-1.6143320798873901,8
-0.096871256828308105,0.57876682281494141,-0.40650999546051025,0.057451296597719193,-1.5314103364944458,0.50818735361099243,0.41344952583312988,-10.27647590637207,-1.2896435260772705,8
0.096871316432952881,0.57876682281494141,-0.40651047229766846,-0.057451583445072174,-1.5314054489135742,0.50818377733230591,-0.41337230801582336,-10.276178359985352,-1.2896989583969116,8
0.28131437301635742,0.57639014720916748,-0.41638189554214478,-0.19494868814945221,-1.5826575756072998,0.39421549439430237,-0.46232965588569641,-10.364309310913086,-1.6143312454223633,8
0.4394792914390564,0.57768595218658447,-0.43947899341583252,-0.26812052726745605,-1.557030200958252,0.26811817288398743,1.0623729228973389,-10.369036674499512,-1.0624345541000366,8
0.72352319955825806,0.58043974637985229,-0.49002447724342346,0.17366942763328552,-1.4948040246963501,0.02800988033413887,0.17761631309986115,-9.9867467880249023,-0.34051960706710815,8
0.9973987340927124,0.58112573623657227,-0.50316977500915527,0.56575506925582886,-1.4838881492614746,-0.036260291934013367,-0.78154021501541138,-9.8996143341064453,-0.1591850221157074,8
-0.99725610017776489,0.5810774564743042,-0.29947412014007568,-0.57691514492034912,-1.4846686124801636,0.0013284073211252689,0.59010738134384155,-9.9055042266845703,-0.055593118071556091,8
-0.70453095436096191,0.58002549409866333,-0.29452541470527649,-0.062702320516109467,-1.5034400224685669,0.04839055985212326,-0.36925745010375977,-10.0377197265625,0.035471208393573761,8
-0.41638228297233582,0.57638972997665405,-0.28131440281867981,0.39421522617340088,-1.5826643705368042,0.19494964182376862,-1.6143553256988525,-10.36436939239502,0.46241414546966553,8
0.41638225317001343,0.57638990879058838,-0.28131446242332458,-0.39421698451042175,-1.5826601982116699,0.1949479728937149,1.6142712831497192,-10.364248275756836,0.46236184239387512,8
0.70453101396560669,0.58002549409866333,-0.2945253849029541,0.062701709568500519,-1.5034397840499878,0.048390720039606094,0.36924618482589722,-10.037715911865234,0.035469532012939453,8
0.99725717306137085,0.5810774564743042,-0.2994740903377533,0.57692062854766846,-1.484668493270874,0.0013284044107422233,-0.59011811017990112,-9.9055042266845703,-0.05559462308883667,8
-0.99667996168136597,0.58107471466064453,-0.099814735352993011,-0.57511186599731445,-1.4847080707550049,0.0020444495603442192,0.53613424301147461,-9.9054832458496094,0.0029361210763454437,8
-0.70103943347930908,0.5801619291305542,-0.098997756838798523,-0.020713701844215393,-1.5000602006912231,0.014824829995632172,-0.2151377946138382,-10.028260231018066,0.091472484171390533,8
-0.40651071071624756,0.5787665843963623,-0.096871234476566315,0.50818353891372681,-1.5314148664474487,0.057453293353319168,-1.2896327972412109,-10.276450157165527,0.41337108612060547,8
0.40651065111160278,0.57876670360565186,-0.096871204674243927,-0.50818240642547607,-1.5314098596572876,0.057452928274869919,1.2896989583969116,-10.276307106018066,0.41335320472717285,8
0.70103943347930908,0.58016186952590942,-0.098997607827186584,0.02070947177708149,-1.5000602006912231,0.014824941754341125,0.21500860154628754,-10.028256416320801,0.091467037796974182,8
0.99668020009994507,0.58107477426528931,-0.099814675748348236,0.57511460781097412,-1.4847079515457153,0.0020444483961910009,-0.53612887859344482,-9.9054794311523438,0.0029329184908419847,8
-0.99667996168136597,0.58107471466064453,0.099814683198928833,-0.57511281967163086,-1.4847080707550049,-0.002044951543211937,0.53613424301147461,-9.9054794311523438,-0.0029323736671358347,8
-0.70103937387466431,0.58016198873519897,0.098997607827186584,-0.020713208243250847,-1.5000598430633545,-0.014825069345533848,-0.21512623131275177,-10.028256416320801,-0.091468378901481628,8
-0.40651071071624756,0.57876682281494141,0.096871271729469299,0.50818377733230591,-1.5314058065414429,-0.05745166540145874,-1.2896345853805542,-10.276185989379883,-0.41336503624916077,8
0.4065101146697998,0.57876682281494141,0.096871189773082733,-0.5081862211227417,-1.5314058065414429,-0.057452559471130371,1.2896488904953003,-10.276185989379883,-0.41339153051376343,8
0.70103937387466431,0.58016186952590942,0.098997309803962708,0.020713105797767639,-1.5000602006912231,-0.014825962483882904,0.21512463688850403,-10.028256416320801,-0.091458514332771301,8
0.99668025970458984,0.58107477426528931,0.099814541637897491,0.57511502504348755,-1.4847079515457153,-0.002045508474111557,-0.53612709045410156,-9.9054794311523438,-0.0029293352272361517,8
-0.99725699424743652,0.5810774564743042,0.29947414994239807,-0.57691878080368042,-1.484668493270874,-0.0013282813597470522,0.59012526273727417,-9.9055042266845703,0.055594414472579956,8
-0.70453071594238281,0.58002549409866333,0.29452550411224365,-0.062697887420654297,-1.5034393072128296,-0.04839012399315834,-0.36928024888038635,-10.037715911865234,-0.035470090806484222,8
-0.41638240218162537,0.57638996839523315,0.28131452202796936,0.39421212673187256,-1.5826599597930908,-0.19494853913784027,-1.614397406578064,-10.364395141601562,-0.46240788698196411,8
0.41638189554214478,0.57638990879058838,0.28131452202796936,-0.39421740174293518,-1.5826660394668579,-0.19494636356830597,1.6142641305923462,-10.364566802978516,-0.46226707100868225,8
0.70453083515167236,0.58002543449401855,0.29452550411224365,0.062702752649784088,-1.5034443140029907,-0.048390258103609085,0.36942499876022339,-10.037858963012695,-0.035468637943267822,8
0.99725741147994995,0.5810774564743042,0.29947412014007568,0.57692176103591919,-1.484668493270874,-0.0013284850865602493,-0.5901145339012146,-9.9055042266845703,0.055594749748706818,8
-0.99739772081375122,0.58112573623657227,0.50316983461380005,-0.56575042009353638,-1.483887791633606,0.036260589957237244,0.78152590990066528,-9.8996105194091797,0.15918394923210144,8
-0.72352319955825806,0.58043974637985229,0.49002489447593689,-0.17366883158683777,-1.4948036670684814,-0.028007909655570984,-0.1776091605424881,-9.9867401123046875,0.34051290154457092,8
-0.43947970867156982,0.57768601179122925,0.43947935104370117,0.2681182324886322,-1.5570298433303833,-0.26811987161636353,-1.0624488592147827,-10.369187355041504,1.0623773336410522,8
-0.28131449222564697,0.57639008760452271,0.41638234257698059,0.19494569301605225,-1.5826613903045654,-0.39421316981315613,0.46225947141647339,-10.364583969116211,1.6143151521682739,8
-0.09687119722366333,0.57876682281494141,0.40651112794876099,0.057451799511909485,-1.5314099788665771,-0.5081818699836731,0.41343119740486145,-10.276472091674805,1.2896292209625244,8
0.096871085464954376,0.57876682281494141,0.40651118755340576,-0.057452455163002014,-1.5314054489135742,-0.50817972421646118,-0.41331833600997925,-10.276185989379883,1.2896918058395386,8
0.28131434321403503,0.5763898491859436,0.41638225317001343,-0.19495029747486115,-1.5826650857925415,-0.39421457052230835,-0.46241950988769531,-10.364395141601562,1.6143383979797363,8
0.4394792914390564,0.57768607139587402,0.43947938084602356,-0.26811939477920532,-1.557031512260437,-0.26811796426773071,1.0623576641082764,-10.369218826293945,1.0624417066574097,8
0.72352319955825806,0.58043974637985229,0.49002501368522644,0.17366917431354523,-1.494803786277771,-0.028007561340928078,0.17761139571666718,-9.9867429733276367,0.34051048755645752,8
0.9973987340927124,0.58112573623657227,0.50316983461380005,0.56575542688369751,-1.4838879108428955,0.036260746419429779,-0.78154021501541138,-9.8996143341064453,0.15918406844139099,8
-0.98014461994171143,0.58129090070724487,0.72431635856628418,-0.46030962467193604,-1.481411337852478,0.17652605473995209,0.71812385320663452,-9.8832855224609375,0.12142493575811386,8
-0.75493127107620239,0.58093911409378052,0.75493055582046509,-0.29630491137504578,-1.48555588722229,0.29630181193351746,0.50985664129257202,-9.8969326019287109,-0.50984323024749756,8
-0.49002489447593689,0.58043974637985229,0.72352313995361328,0.028008127585053444,-1.4948036670684814,0.1736680269241333,-0.3405071496963501,-9.9867401123046875,0.17760960757732391,8
-0.2945246696472168,0.58002549409866333,0.70453077554702759,0.048392437398433685,-1.5034394264221191,0.062697745859622955,0.035447850823402405,-10.037715911865234,0.36928820610046387,8
-0.098997175693511963,0.58016198873519897,0.70103937387466431,0.014826320111751556,-1.5000596046447754,0.020713040605187416,0.091455161571502686,-10.028260231018066,0.21512460708618164,8
0.098997145891189575,0.58016198873519897,0.70103931427001953,-0.014826859347522259,-1.5000596046447754,0.020708894357085228,-0.09145905077457428,-10.028260231018066,0.21500039100646973,8
0.29452458024024963,0.58002543449401855,0.70453077554702759,-0.048393353819847107,-1.5034443140029907,0.062697470188140869,-0.035449862480163574,-10.037858963012695,0.36927825212478638,8
0.49002447724342346,0.58043974637985229,0.72352325916290283,-0.028009951114654541,-1.4948039054870605,0.17366847395896912,0.340516597032547,-9.9867429733276367,0.17760826647281647,8
0.75493133068084717,0.58093911409378052,0.75493133068084717,0.2963053286075592,-1.4855561256408691,0.29630488157272339,-0.50985485315322876,-9.8969326019287109,-0.50985664129257202,8
0.98014485836029053,0.5812908411026001,0.72431635856628418,0.46031230688095093,-1.4814116954803467,0.17652679979801178,-0.71812206506729126,-9.8832855224609375,0.12142582982778549,8
-0.93244731426239014,0.58147275447845459,0.93244725465774536,-0.26381704211235046,-1.4793076515197754,0.2638169527053833,-0.36557969450950623,-9.8777170181274414,0.36557969450950623,8
-0.7243162989616394,0.58129090070724487,0.9801446795463562,-0.17652656137943268,-1.481411337852478,0.46031045913696289,-0.12142404168844223,-9.8832855224609375,-0.71812295913696289,8
-0.50316983461380005,0.58112573623657227,0.99739867448806763,-0.036260314285755157,-1.483887791633606,0.56575381755828857,-0.15918339788913727,-9.8996143341064453,-0.7815437912940979,8
-0.29947391152381897,0.5810774564743042,0.99725693464279175,0.0013293863739818335,-1.4846683740615845,0.57691866159439087,-0.055596526712179184,-9.9055013656616211,-0.59012526273727417,8
-0.099814504384994507,0.58107477426528931,0.99667906761169434,0.0020455850753933191,-1.4847077131271362,0.57510864734649658,0.002928238594904542,-9.9054794311523438,-0.53611814975738525,8
0.09981449693441391,0.58107477426528931,0.99667900800704956,-0.0020457706414163113,-1.4847077131271362,0.57510840892791748,-0.0029294330161064863,-9.9054794311523438,-0.53611636161804199,8
0.29947388172149658,0.5810774564743042,0.99725699424743652,-0.001329649705439806,-1.484668493270874,0.57691878080368042,0.055595856159925461,-9.9055042266845703,-0.59012347459793091,8
0.50316977500915527,0.58112573623657227,0.99739867448806763,0.036260008811950684,-1.4838880300521851,0.56575459241867065,0.15918394923210144,-9.8996143341064453,-0.78154200315475464,8
0.7243162989616394,0.5812908411026001,0.98014479875564575,0.17652688920497894,-1.4814118146896362,0.46031200885772705,0.12142582982778549,-9.8832855224609375,-0.71812206506729126,8
0.93244749307632446,0.58147251605987549,0.93244743347167969,0.2638181746006012,-1.4793081283569336,0.26381790637969971,0.36558327078819275,-9.8777170181274414,0.36558237671852112,8
-0.93269461393356323,0.78210645914077759,-0.93269437551498413,-0.26730901002883911,-1.4677071571350098,-0.2673085629940033,-0.38659927248954773,-9.7726669311523438,-0.38659927248954773,8
-0.72466248273849487,0.78190666437149048,-0.98074740171432495,-0.18017131090164185,-1.4690066576004028,-0.46626260876655579,-0.13226419687271118,-9.7676715850830078,0.70565873384475708,8
-0.50331825017929077,0.78138887882232666,-0.99852335453033447,-0.037779487669467926,-1.4732462167739868,-0.57524287700653076,-0.16402824223041534,-9.7647781372070312,0.78155988454818726,8
-0.29941025376319885,0.78128468990325928,-0.99827349185943604,0.0015628254041075706,-1.4743310213088989,-0.58524304628372192,-0.06065879762172699,-9.7679824829101562,0.59273058176040649,8
-0.099773801863193512,0.78138089179992676,-0.99754083156585693,0.0023625949397683144,-1.4737858772277832,-0.58256590366363525,0.0026291164103895426,-9.772120475769043,0.5328369140625,8
0.099773839116096497,0.78138089179992676,-0.99754083156585693,-0.0023623956367373466,-1.4737859964370728,-0.58256590366363525,-0.0026298428419977427,-9.772120475769043,0.5328369140625,8
0.29941025376319885,0.7812846302986145,-0.99827349185943604,-0.0015630050329491496,-1.474331259727478,-0.58524316549301147,0.060658518224954605,-9.7679786682128906,0.59273058176040649,8
0.50331813097000122,0.78138887882232666,-0.99852341413497925,0.037778999656438828,-1.4732464551925659,-0.57524347305297852,0.16402935981750488,-9.7647781372070312,0.78155452013015747,8
0.7246624231338501,0.78190666437149048,-0.9807475209236145,0.1801711767911911,-1.4690066576004028,-0.46626368165016174,0.132264643907547,-9.7676715850830078,0.70565605163574219,8
0.93269461393356323,0.78210645914077759,-0.93269455432891846,0.26730936765670776,-1.4677070379257202,-0.26730930805206299,0.38660195469856262,-9.7726669311523438,-0.38660195469856262,8
-0.98074722290039062,0.78190666437149048,-0.72466230392456055,-0.46626186370849609,-1.4690067768096924,-0.18017041683197021,0.70566052198410034,-9.7676715850830078,-0.13226419687271118,8
-0.75713479518890381,0.77991265058517456,-0.75713396072387695,-0.31026265025138855,-1.4784507751464844,-0.31025907397270203,0.52498161792755127,-9.7201604843139648,0.52496463060379028,8
-0.49088564515113831,0.77409547567367554,-0.7307431697845459,0.018223483115434647,-1.5126117467880249,-0.22216476500034332,-0.36552774906158447,-9.6674709320068359,-0.19263042509555817,8
-0.29354038834571838,0.77545690536499023,-0.70953631401062012,0.048917744308710098,-1.5211827754974365,-0.11614017933607101,-0.021699180826544762,-9.8004617691040039,-0.48758801817893982,8
-0.098553963005542755,0.77662062644958496,-0.70429438352584839,0.020719537511467934,-1.5190430879592896,-0.061001863330602646,0.097699902951717377,-9.8537311553955078,-0.3781791627407074,8
0.098554074764251709,0.77662080526351929,-0.70429438352584839,-0.020718714222311974,-1.5190403461456299,-0.061001677066087723,-0.097668223083019257,-9.8537740707397461,-0.3781706690788269,8
0.29354032874107361,0.77545613050460815,-0.70953631401062012,-0.048918388783931732,-1.5211838483810425,-0.11613503843545914,0.021701416000723839,-9.8004264831542969,-0.48729118704795837,8
0.4908851683139801,0.77409547567367554,-0.73074352741241455,-0.018223924562335014,-1.5126122236251831,-0.22216849029064178,0.36551740765571594,-9.6674671173095703,-0.19258750975131989,8
0.75713473558425903,0.77991265058517456,-0.75713396072387695,0.31026259064674377,-1.4784506559371948,-0.31025984883308411,-0.52497804164886475,-9.7201604843139648,0.5249592661857605,8
0.98074758052825928,0.78190666437149048,-0.72466230392456055,0.4662635326385498,-1.4690066576004028,-0.18017067015171051,-0.70565605163574219,-9.7676715850830078,-0.13226553797721863,8
-0.99852246046066284,0.78138887882232666,-0.50331807136535645,-0.57523739337921143,-1.473246693611145,-0.037778452038764954,0.7815437912940979,-9.7647781372070312,-0.16402891278266907,8
-0.73074352741241455,0.77409547567367554,-0.49088466167449951,-0.22216936945915222,-1.5126117467880249,0.018226047977805138,-0.19260092079639435,-9.6674671173095703,-0.36553224921226501,8
-0.44450250267982483,0.7551809549331665,-0.44450214505195618,0.18897265195846558,-1.6416841745376587,0.1889701783657074,-0.98348015546798706,-9.4798879623413086,-0.98321104049682617,8
-0.27578139305114746,0.75706785917282104,-0.42659452557563782,0.24283212423324585,-1.6984761953353882,0.26410570740699768,0.18016977608203888,-9.0398626327514648,-1.1173635721206665,8
-0.093282826244831085,0.76425677537918091,-0.41639715433120728,0.11433973908424377,-1.6341010332107544,0.39864683151245117,0.16197299957275391,-9.665919303894043,-1.352139949798584,8
0.093282617628574371,0.76425671577453613,-0.41639715433120728,-0.11434200406074524,-1.6341012716293335,0.3986467719078064,-0.16171930730342865,-9.6659154891967773,-1.3521345853805542,8
0.27578112483024597,0.75706756114959717,-0.42659455537796021,-0.24283409118652344,-1.6984806060791016,0.26410743594169617,-0.17992077767848969,-9.0398130416870117,-1.1171507835388184,8
0.44450223445892334,0.75518089532852173,-0.44450238347053528,-0.18897199630737305,-1.6416844129562378,0.18896909058094025,0.98321688175201416,-9.4798812866210938,-0.98314177989959717,8
0.73074352741241455,0.77409547567367554,-0.49088466167449951,0.2221691906452179,-1.5126117467880249,0.018225844949483871,0.19259466230869293,-9.6674671173095703,-0.36553102731704712,8
0.99852341413497925,0.78138887882232666,-0.50331807136535645,0.57524293661117554,-1.4732464551925659,-0.037778563797473907,-0.78155809640884399,-9.7647781372070312,-0.16403003036975861,8
-0.99827241897583008,0.78128468990325928,-0.29941028356552124,-0.58523702621459961,-1.4743313789367676,0.0015629202825948596,0.59271448850631714,-9.7679862976074219,-0.060656532645225525,8
-0.7095368504524231,0.77545690536499023,-0.29354038834571838,-0.11614362150430679,-1.5211824178695679,0.048918209969997406,-0.4873846173286438,-9.8004474639892578,-0.021699180826544762,8
-0.42659556865692139,0.75706750154495239,-0.27578139305114746,0.26410162448883057,-1.6984820365905762,0.24283586442470551,-1.1173214912414551,-9.0397663116455078,0.18012864887714386,8
0.4265950620174408,0.75706750154495239,-0.27578124403953552,-0.26410523056983948,-1.6984829902648926,0.2428373247385025,1.1171283721923828,-9.039759635925293,0.17996324598789215,8
0.7095368504524231,0.77545690536499023,-0.29354038834571838,0.11614403873682022,-1.5211822986602783,0.048918075859546661,0.48738864064216614,-9.8004474639892578,-0.021698398515582085,8
0.99827355146408081,0.78128468990325928,-0.29941034317016602,0.58524322509765625,-1.474331259727478,0.0015627047978341579,-0.59272879362106323,-9.7679824829101562,-0.060657456517219543,8
-0.99754065275192261,0.78138089179992676,-0.09977392852306366,-0.58256393671035767,-1.4737859964370728,0.002361940685659647,0.53284406661987305,-9.772120475769043,0.0026341944467276335,8
-0.70429450273513794,0.77662086486816406,-0.098554313182830811,-0.061003260314464569,-1.5190392732620239,0.020718749612569809,-0.37819781899452209,-9.8537626266479492,0.097690850496292114,8
-0.41639778017997742,0.76425683498382568,-0.093282349407672882,0.39864334464073181,-1.6341004371643066,0.11434569954872131,-1.3521246910095215,-9.6659154891967773,0.16170321404933929,8
0.41639754176139832,0.76425677537918091,-0.093282505869865417,-0.39864522218704224,-1.6341004371643066,0.11434560269117355,1.3521318435668945,-9.6659011840820312,0.16166968643665314,8
0.70429456233978271,0.77662080526351929,-0.098554521799087524,0.061003085225820541,-1.5190396308898926,0.020718548446893692,0.37818554043769836,-9.8537626266479492,0.097693145275115967,8
0.99754178524017334,0.78138089179992676,-0.099774055182933807,0.58256947994232178,-1.4737861156463623,0.0023613809607923031,-0.53285479545593262,-9.772120475769043,0.0026367090176790953,8
-0.99754083156585693,0.78138095140457153,0.099773965775966644,-0.58256494998931885,-1.4737857580184937,-0.0023621376603841782,0.53284585475921631,-9.772120475769043,-0.0026334819849580526,8
-0.70429450273513794,0.77662146091461182,0.098554320633411407,-0.061002425849437714,-1.5190378427505493,-0.02071884460747242,-0.3781764805316925,-9.8537845611572266,-0.097683697938919067,8
-0.41639769077301025,0.76425707340240479,0.093282677233219147,0.39864459633827209,-1.6340969800949097,-0.11434128880500793,-1.3521443605422974,-9.6659479141235352,-0.16174054145812988,8
0.4163973331451416,0.76425701379776001,0.093282632529735565,-0.39864608645439148,-1.6340979337692261,-0.11434366554021835,1.3521327972412109,-9.6659479141235352,-0.16183933615684509,8
0.70429456233978271,0.77662080526351929,0.098554052412509918,0.061002414673566818,-1.519039511680603,-0.020719302818179131,0.37817168235778809,-9.8537626266479492,-0.097681574523448944,8
0.99754196405410767,0.78138089179992676,0.099773816764354706,0.58257055282592773,-1.4737858772277832,-0.0023628019262105227,-0.53285479545593262,-9.772120475769043,-0.0026296053547412157,8
-0.99827337265014648,0.78128468990325928,0.29941043257713318,-0.58524054288864136,-1.474331259727478,-0.0015625528758391738,0.59273773431777954,-9.7679862976074219,0.060657594352960587,8
-0.70953643321990967,0.77545702457427979,0.29354056715965271,-0.11613566428422928,-1.5211814641952515,-0.048917420208454132,-0.48728939890861511,-9.8004446029663086,0.021699963137507439,8
-0.42659544944763184,0.75706803798675537,0.27578136324882507,0.26410350203514099,-1.6984754800796509,-0.24283164739608765,-1.1172624826431274,-9.0398197174072266,-0.18007679283618927,8
0.42659461498260498,0.75706762075424194,0.27578157186508179,-0.26410609483718872,-1.6984798908233643,-0.24283535778522491,1.1172231435775757,-9.0398130416870117,-0.18007232248783112,8
0.70953649282455444,0.77545702457427979,0.29354086518287659,0.11613582074642181,-1.521181583404541,-0.048916686326265335,0.48728984594345093,-9.8004474639892578,0.021689457818865776,8
0.99827456474304199,0.78128468990325928,0.29941043257713318,0.58524686098098755,-1.4743306636810303,-0.0015625918749719858,-0.59274846315383911,-9.7679786682128906,0.060657385736703873,8
-0.99852246046066284,0.78138887882232666,0.503318190574646,-0.5752379298210144,-1.4732464551925659,0.03777916356921196,0.7815437912940979,-9.7647781372070312,0.16402846574783325,8
-0.73074352741241455,0.77409547567367554,0.49088552594184875,-0.22216884791851044,-1.5126112699508667,-0.018222620710730553,-0.19258393347263336,-9.6674642562866211,0.36551672220230103,8
-0.44450274109840393,0.75518149137496948,0.44450253248214722,0.18896834552288055,-1.6416773796081543,-0.1889670342206955,-0.98341578245162964,-9.4799556732177734,0.98330092430114746,8
-0.27578136324882507,0.75706815719604492,0.42659503221511841,0.24283412098884583,-1.6984729766845703,-0.26410475373268127,0.18022967875003815,-9.0398702621459961,1.1172795295715332,8
-0.093282759189605713,0.76425701379776001,0.41639775037765503,0.11434139311313629,-1.6340974569320679,-0.39864462614059448,0.16195444762706757,-9.6659507751464844,1.3521425724029541,8
0.093282446265220642,0.76425701379776001,0.41639778017997742,-0.11434271931648254,-1.6340979337692261,-0.39864367246627808,-0.16162006556987762,-9.6659507751464844,1.352121114730835,8
0.27578100562095642,0.75706744194030762,0.42659497261047363,-0.2428361177444458,-1.698482871055603,-0.26410457491874695,-0.17997486889362335,-9.0397624969482422,1.1172115802764893,8
0.44450244307518005,0.75518125295639038,0.44450235366821289,-0.18896821141242981,-1.6416810750961304,-0.18896779417991638,0.98314398527145386,-9.479924201965332,0.983345627784729,8
0.73074352741241455,0.77409547567367554,0.49088555574417114,0.22216877341270447,-1.5126101970672607,-0.01822233758866787,0.19258125126361847,-9.6674671173095703,0.36551392078399658,8
0.99852371215820312,0.78138899803161621,0.503318190574646,0.57524430751800537,-1.4732457399368286,0.037779323756694794,-0.78155452013015747,-9.7647743225097656,0.16402903199195862,8
-0.9807465672492981,0.78190666437149048,0.72466236352920532,-0.46625936031341553,-1.4690066576004028,0.18017040193080902,0.70563995838165283,-9.7676715850830078,0.13226419687271118,8
-0.75713473558425903,0.77991265058517456,0.75713396072387695,-0.3102620542049408,-1.4784501791000366,0.31025856733322144,0.52497893571853638,-9.7201604843139648,-0.52496552467346191,8
-0.49088552594184875,0.77409547567367554,0.73074352741241455,0.018223090097308159,-1.512610912322998,0.22216850519180298,-0.3655087947845459,-9.6674671173095703,0.19259332120418549,8
-0.29354003071784973,0.77545630931854248,0.70953673124313354,0.048919215798377991,-1.5211838483810425,0.11614387482404709,-0.02171158604323864,-9.8004369735717773,0.48754847049713135,8
-0.098554015159606934,0.77662062644958496,0.70429456233978271,0.020719800144433975,-1.5190434455871582,0.061002328991889954,0.097696997225284576,-9.8537235260009766,0.37818107008934021,8
0.098553843796253204,0.77662080526351929,0.70429456233978271,-0.020720811560750008,-1.5190399885177612,0.06100185215473175,-0.097676828503608704,-9.8537664413452148,0.37817087769508362,8
0.29353991150856018,0.77545630931854248,0.70953649282455444,-0.048920053988695145,-1.5211833715438843,0.11613721400499344,0.021710244938731194,-9.8004302978515625,0.48724225163459778,8
0.49088510870933533,0.77409547567367554,0.7307426929473877,-0.018224755302071571,-1.512610912322998,0.2221650630235672,0.36551794409751892,-9.6674671173095703,0.1925995796918869,8
0.75713473558425903,0.77991265058517456,0.75713396072387695,0.31026250123977661,-1.478449821472168,0.31025916337966919,-0.52497893571853638,-9.7201604843139648,-0.52496194839477539,8
0.98074758052825928,0.78190672397613525,0.72466236352920532,0.46626350283622742,-1.4690065383911133,0.18017052114009857,-0.70565605163574219,-9.7676715850830078,0.13226419687271118,8
-0.93269437551498413,0.78210645914077759,0.93269437551498413,-0.26730811595916748,-1.4677069187164307,0.26730823516845703,-0.38659927248954773,-9.7726669311523438,0.38659748435020447,8
-0.72466236352920532,0.78190672397613525,0.98074716329574585,-0.18017077445983887,-1.4690065383911133,0.46626204252243042,-0.13226285576820374,-9.7676715850830078,-0.70565962791442871,8
-0.50331807136535645,0.78138893842697144,0.99852335453033447,-0.037778634577989578,-1.4732460975646973,0.57524234056472778,-0.16402801871299744,-9.7647781372070312,-0.78155988454818726,8
-0.2994098961353302,0.7812846302986145,0.99827337265014648,0.0015643290244042873,-1.4743314981460571,0.58524143695831299,-0.060669161379337311,-9.7679862976074219,-0.59273236989974976,8
-0.099773794412612915,0.78138083219528198,0.99754065275192261,0.0023627469781786203,-1.4737863540649414,0.58256381750106812,0.0026289697270840406,-9.772120475769043,-0.53284585475921631,8
0.099773749709129333,0.78138083219528198,0.99754071235656738,-0.0023631863296031952,-1.4737862348556519,0.58256411552429199,-0.002629835857078433,-9.772120475769043,-0.53284585475921631,8
0.29940986633300781,0.78128468990325928,0.99827337265014648,-0.001564602367579937,-1.4743311405181885,0.58524203300476074,0.060668576508760452,-9.7679786682128906,-0.59273415803909302,8
0.50331807136535645,0.78138893842697144,0.99852335453033447,0.037778474390506744,-1.4732458591461182,0.57524263858795166,0.16402868926525116,-9.7647743225097656,-0.78155630826950073,8
0.7246624231338501,0.78190672397613525,0.9807472825050354,0.18017113208770752,-1.4690065383911133,0.46626248955726624,0.13226419687271118,-9.7676715850830078,-0.70565605163574219,8
0.93269461393356323,0.78210645914077759,0.93269437551498413,0.26730930805206299,-1.4677069187164307,0.26730853319168091,0.38660195469856262,-9.7726669311523438,0.38659927248954773,8
-0.93164491653442383,0.98435825109481812,-0.93164485692977905,-0.25528967380523682,-1.4407591819763184,-0.25528958439826965,-0.3410973846912384,-9.6489887237548828,-0.3410973846912384,8
-0.72433841228485107,0.98554390668869019,-0.97955060005187988,-0.17477305233478546,-1.4330322742462158,-0.45186543464660645,-0.092316709458827972,-9.6757144927978516,0.77331745624542236,8
-0.50366461277008057,0.98557865619659424,-0.99855399131774902,-0.039670590311288834,-1.4319316148757935,-0.56683957576751709,-0.15003828704357147,-9.6621170043945312,0.90950840711593628,8
-0.2995089590549469,0.98523563146591187,-0.9985385537147522,0.00055192504078149796,-1.4337242841720581,-0.57585674524307251,-0.063393525779247284,-9.6466894149780273,0.77111357450485229,8
-0.099741898477077484,0.98512548208236694,-0.99765175580978394,0.0023578493855893612,-1.4345450401306152,-0.57152688503265381,-0.0012289545265957713,-9.6450653076171875,0.71894282102584839,8
0.099741898477077484,0.98512548208236694,-0.99765175580978394,-0.0023578382097184658,-1.434545636177063,-0.57152682542800903,0.0012285982957109809,-9.6450586318969727,0.71894460916519165,8
0.2995089590549469,0.98523563146591187,-0.99853861331939697,-0.0005520674167200923,-1.4337246417999268,-0.57585680484771729,0.063392862677574158,-9.6466817855834961,0.77111715078353882,8
0.50366461277008057,0.98557865619659424,-0.99855399131774902,0.039670336991548538,-1.431931734085083,-0.56684023141860962,0.15003828704357147,-9.6621170043945312,0.90951019525527954,8
0.72433841228485107,0.98554390668869019,-0.97955137491226196,0.17477279901504517,-1.4330323934555054,-0.45186802744865417,0.092316262423992157,-9.6757144927978516,0.77333444356918335,8
0.93164491653442383,0.98435825109481812,-0.9316449761390686,0.25528988242149353,-1.4407591819763184,-0.25529047846794128,0.34109872579574585,-9.6489887237548828,-0.34109917283058167,8
-0.97955054044723511,0.98554390668869019,-0.7243383526802063,-0.45186430215835571,-1.4330323934555054,-0.17477245628833771,0.77331745624542236,-9.6757144927978516,-0.092315815389156342,8
-0.76255488395690918,0.98572242259979248,-0.76255488395690918,-0.32609021663665771,-1.4289294481277466,-0.32608938217163086,0.72098666429519653,-9.6953697204589844,0.72098398208618164,8
-0.49509605765342712,0.97700023651123047,-0.75524693727493286,-0.0059109479188919067,-1.4660494327545166,-0.33551007509231567,-0.30620631575584412,-9.5098505020141602,0.20594178140163422,8
-0.29217171669006348,0.97280532121658325,-0.7307593822479248,0.04026779904961586,-1.4897035360336304,-0.22297856211662292,-0.1608387678861618,-9.442805290222168,-0.19987641274929047,8
-0.09865424782037735,0.97202253341674805,-0.72321510314941406,0.014335508458316326,-1.4980323314666748,-0.17172351479530334,0.048503778874874115,-9.4539852142333984,-0.18338261544704437,8
0.098654255270957947,0.97202253341674805,-0.72321510314941406,-0.014335609972476959,-1.4980320930480957,-0.17172347009181976,-0.048505093902349472,-9.4539709091186523,-0.18337680399417877,8
0.2921716570854187,0.97280579805374146,-0.7307593822479248,-0.040268152952194214,-1.4896968603134155,-0.22297461330890656,0.16083954274654388,-9.4428806304931641,-0.19974811375141144,8
0.49509599804878235,0.97700023651123047,-0.75524693727493286,0.005910324864089489,-1.4660493135452271,-0.33551055192947388,0.30620884895324707,-9.5098390579223633,0.20594356954097748,8
0.76255488395690918,0.98572242259979248,-0.76255488395690918,0.32609039545059204,-1.4289294481277466,-0.32609006762504578,-0.72098487615585327,-9.6953697204589844,0.72098308801651001,8
0.97955065965652466,0.98554390668869019,-0.72433841228485107,0.451865553855896,-1.4330323934555054,-0.17477278411388397,-0.77331477403640747,-9.6757144927978516,-0.092317156493663788,8
-0.99855303764343262,0.98557853698730469,-0.50366461277008057,-0.56683433055877686,-1.4319324493408203,-0.039669681340456009,0.90949410200119019,-9.6621170043945312,-0.1500377357006073,8
-0.75524693727493286,0.97700023651123047,-0.49509516358375549,-0.33551025390625,-1.4660495519638062,-0.0059071779251098633,0.20593105256557465,-9.5098361968994141,-0.30622866749763489,8
-0.45698991417884827,0.93769127130508423,-0.45698916912078857,0.13989941775798798,-1.6214368343353271,0.13990049064159393,-0.60472232103347778,-8.757777214050293,-0.60462307929992676,8
-0.27347454428672791,0.92681223154067993,-0.44824889302253723,0.17266108095645905,-1.6383633613586426,0.15388110280036926,-0.074599824845790863,-8.3255910873413086,0.22120042145252228,8
-0.093213364481925964,0.92315781116485596,-0.44077342748641968,0.098087511956691742,-1.6918066740036011,0.25508600473403931,-0.13845585286617279,-8.251032829284668,-0.64899170398712158,8
0.093213222920894623,0.92315775156021118,-0.44077342748641968,-0.098089583218097687,-1.6918079853057861,0.25508609414100647,0.13856403529644012,-8.2511968612670898,-0.64898991584777832,8
0.27347442507743835,0.92681241035461426,-0.44824892282485962,-0.1726614385843277,-1.6383621692657471,0.15388156473636627,0.07468520849943161,-8.3259515762329102,0.22129474580287933,8
0.45699000358581543,0.93769121170043945,-0.45698925852775574,-0.13989853858947754,-1.6214373111724854,0.13989797234535217,0.60462886095046997,-8.7579231262207031,-0.60469144582748413,8
0.75524699687957764,0.97700023651123047,-0.49509519338607788,0.33551070094108582,-1.4660494327545166,-0.0059073707088828087,-0.20593820512294769,-9.5098390579223633,-0.30622896552085876,8
0.99855393171310425,0.98557865619659424,-0.50366461277008057,0.56683850288391113,-1.4319322109222412,-0.03966975212097168,-0.90950661897659302,-9.6621170043945312,-0.15003851056098938,8
-0.99853765964508057,0.98523563146591187,-0.29950898885726929,-0.5758516788482666,-1.4337259531021118,0.00055201712530106306,0.7710992693901062,-9.6466817855834961,-0.063391029834747314,8
-0.73075968027114868,0.97280561923980713,-0.29217201471328735,-0.22298325598239899,-1.4896970987319946,0.040267590433359146,-0.19985584914684296,-9.4428701400756836,-0.16082948446273804,8
-0.44824981689453125,0.92681294679641724,-0.27347484230995178,0.15387830138206482,-1.6383582353591919,0.17266000807285309,0.22120489180088043,-8.3258657455444336,-0.074566744267940521,8
-0.27381902933120728,0.92973423004150391,-0.2738189697265625,0.24933934211730957,-1.5324032306671143,0.24934032559394836,-0.81637853384017944,-10.420242309570312,-0.81625604629516602,8
-0.09063459187746048,0.9252510666847229,-0.28198069334030151,0.13400328159332275,-1.6013133525848389,0.18561245501041412,-0.87002408504486084,-9.7038059234619141,0.42355787754058838,8
0.09063439816236496,0.92525094747543335,-0.28198063373565674,-0.1340051144361496,-1.601317286491394,0.18561401963233948,0.8700861930847168,-9.7039279937744141,0.42353507876396179,8
0.27381891012191772,0.92973423004150391,-0.27381888031959534,-0.24934113025665283,-1.5324029922485352,0.24934019148349762,0.81637048721313477,-10.420402526855469,-0.81641745567321777,8
0.44824984669685364,0.92681282758712769,-0.27347445487976074,-0.15387575328350067,-1.6383551359176636,0.17266252636909485,-0.22124959528446198,-8.3258914947509766,-0.074592225253582001,8
0.73075956106185913,0.97280579805374146,-0.29217201471328735,0.22297914326190948,-1.489696741104126,0.040267590433359146,0.19972307980060577,-9.4428739547729492,-0.1608298271894455,8
0.99853783845901489,0.98523563146591187,-0.29950901865959167,0.57585436105728149,-1.4337257146835327,0.0005518936668522656,-0.77109211683273315,-9.6466817855834961,-0.063391804695129395,8
-0.99765157699584961,0.98512548208236694,-0.099742002785205841,-0.5715254545211792,-1.4345468282699585,0.0023573262151330709,0.71894818544387817,-9.6450586318969727,-0.0012246867408975959,8
-0.72321528196334839,0.97202253341674805,-0.09865463525056839,-0.17172814905643463,-1.4980317354202271,0.014334413222968578,-0.183354452252388,-9.4539604187011719,0.04851970449090004,8
-0.44077405333518982,0.92315804958343506,-0.093213215470314026,0.25508257746696472,-1.6918023824691772,0.098090723156929016,-0.64897918701171875,-8.2510576248168945,-0.13855017721652985,8
-0.28198081254959106,0.92525112628936768,-0.090634465217590332,0.18561199307441711,-1.6013123989105225,0.13400483131408691,0.42353507876396179,-9.7037878036499023,-0.87006473541259766,8
-0.095867037773132324,0.92561841011047363,-0.095867052674293518,0.066721148788928986,-1.5893962383270264,0.066721774637699127,-0.0041238963603973389,-9.5437173843383789,-0.0041118264198303223,8
0.095866918563842773,0.92561841011047363,-0.095867037773132324,-0.066722840070724487,-1.5893962383270264,0.066722273826599121,0.0041207671165466309,-9.5437173843383789,-0.0041158497333526611,8
0.28198069334030151,0.92525118589401245,-0.090634427964687347,-0.18561509251594543,-1.6013134717941284,0.13400638103485107,-0.42359989881515503,-9.7039594650268555,-0.87007772922515869,8
0.44077399373054504,0.92315787076950073,-0.09321323037147522,-0.25508353114128113,-1.6918027400970459,0.098091021180152893,0.6489747166633606,-8.2510499954223633,-0.13856269419193268,8
0.72321534156799316,0.97202253341674805,-0.098654672503471375,0.17172813415527344,-1.4980317354202271,0.014334112405776978,0.18334774672985077,-9.4539604187011719,0.048520348966121674,8
0.99765181541442871,0.98512548208236694,-0.099742032587528229,0.57152760028839111,-1.4345467090606689,0.0023569597396999598,-0.71894103288650513,-9.6450586318969727,-0.0012248543789610267,8
-0.99765163660049438,0.98512548208236694,0.099742032587528229,-0.57152563333511353,-1.4345467090606689,-0.0023575073573738337,0.71894997358322144,-9.6450586318969727,0.0012251896550878882,8
-0.72321510314941406,0.97202253341674805,0.09865453839302063,-0.17172415554523468,-1.4980314970016479,-0.014334959909319878,-0.18338127434253693,-9.4539632797241211,-0.04851333424448967,8
-0.44077384471893311,0.92315804958343506,0.093213401734828949,0.25508415699005127,-1.691801905632019,-0.098087422549724579,-0.64899706840515137,-8.2510499954223633,0.13853408396244049,8
-0.28198081254959106,0.92525112628936768,0.090634845197200775,0.18561187386512756,-1.6013122797012329,-0.13400119543075562,0.42353194952011108,-9.7037849426269531,0.87003970146179199,8
-0.095867224037647247,0.92561841011047363,0.095867082476615906,0.066720187664031982,-1.5893963575363159,-0.066720955073833466,-0.004115179181098938,-9.5437173843383789,0.0041156262159347534,8
0.095866985619068146,0.92561841011047363,0.095867030322551727,-0.06672213226556778,-1.5893963575363159,-0.066721290349960327,0.0041124969720840454,-9.5437211990356445,0.0041209906339645386,8
0.2819807231426239,0.92525112628936768,0.090634681284427643,-0.1856132447719574,-1.6013126373291016,-0.13400290906429291,-0.42354357242584229,-9.703791618347168,0.87000977993011475,8
0.44077384471893311,0.92315787076950073,0.093213334679603577,-0.25508543848991394,-1.691802978515625,-0.098088748753070831,0.64899170398712158,-8.2510576248168945,0.13851776719093323,8
0.72321516275405884,0.97202253341674805,0.098654359579086304,0.17172427475452423,-1.4980314970016479,-0.014335527084767818,0.18337993323802948,-9.4539604187011719,-0.048506993800401688,8
0.99765181541442871,0.98512548208236694,0.09974188357591629,0.57152843475341797,-1.4345461130142212,-0.002358144847676158,-0.71894460916519165,-9.6450586318969727,0.001228304929099977,8
-0.99853771924972534,0.98523563146591187,0.29950913786888123,-0.57585251331329346,-1.4337258338928223,-0.00055168842663988471,0.77110284566879272,-9.6466789245605469,0.063391827046871185,8
-0.73075950145721436,0.9728056788444519,0.29217210412025452,-0.22297520935535431,-1.4896968603134155,-0.040266934782266617,-0.19974543154239655,-9.4428701400756836,0.16083037853240967,8
-0.4482494592666626,0.92681294679641724,0.27347457408905029,0.15388081967830658,-1.6383571624755859,-0.17266125977039337,0.22118254005908966,-8.3258485794067383,0.074606083333492279,8
-0.27381941676139832,0.92973393201828003,0.27381941676139832,0.24933403730392456,-1.5324046611785889,-0.24933959543704987,-0.8163830041885376,-10.420195579528809,0.81616532802581787,8
-0.090634927153587341,0.9252510666847229,0.28198078274726868,0.1340009868144989,-1.6013128757476807,-0.18561448156833649,-0.86999410390853882,-9.7037954330444336,-0.42359811067581177,8
0.090634576976299286,0.92525112628936768,0.28198084235191345,-0.13400366902351379,-1.6013127565383911,-0.18561258912086487,0.87006294727325439,-9.7037992477416992,-0.42354089021682739,8
0.27381929755210876,0.92973411083221436,0.27381929755210876,-0.24934150278568268,-1.5324070453643799,-0.24933968484401703,0.81626546382904053,-10.420520782470703,0.81644606590270996,8
0.44824925065040588,0.92681258916854858,0.27347493171691895,-0.15388184785842896,-1.6383558511734009,-0.17265817523002625,-0.22127686440944672,-8.325648307800293,0.074736170470714569,8
0.7307593822479248,0.97280591726303101,0.29217210412025452,0.22297471761703491,-1.4896950721740723,-0.04026683047413826,0.19974364340305328,-9.4428739547729492,0.16082938015460968,8
0.99853885173797607,0.98523563146591187,0.29950907826423645,0.57585781812667847,-1.433724045753479,-0.00055183249060064554,-0.77111178636550903,-9.6466817855834961,0.063391827046871185,8
-0.99855315685272217,0.98557865619659424,0.50366461277008057,-0.56683480739593506,-1.4319323301315308,0.039670404046773911,0.90949410200119019,-9.6621170043945312,0.1500377357006073,8
-0.75524765253067017,0.97700023651123047,0.49509599804878235,-0.33551251888275146,-1.4660488367080688,0.0059107691049575806,0.2059614509344101,-9.5098323822021484,0.30621394515037537,8
-0.45698979496955872,0.93769139051437378,0.45698946714401245,0.13990104198455811,-1.621435284614563,-0.13990060985088348,-0.60473573207855225,-8.7577629089355469,0.60473036766052246,8
-0.27347451448440552,0.92681252956390381,0.44824936985969543,0.17266079783439636,-1.6383593082427979,-0.1538815051317215,-0.074605636298656464,-8.32562255859375,-0.22118164598941803,8
-0.093213543295860291,0.92315781116485596,0.44077381491661072,0.098087482154369354,-1.6918058395385742,-0.25508472323417664,-0.13843998312950134,-8.2510147094726562,0.64898991584777832,8
0.093213126063346863,0.92315781116485596,0.44077396392822266,-0.098089806735515594,-1.6918069124221802,-0.2550835907459259,0.13857521116733551,-8.2511825561523438,0.64896845817565918,8
0.27347484230995178,0.92681270837783813,0.44824916124343872,-0.17265918850898743,-1.6383589506149292,-0.15388338267803192,0.074652574956417084,-8.3260126113891602,-0.22124914824962616,8
0.45699000358581543,0.93769150972366333,0.45698961615562439,-0.13989849388599396,-1.6214311122894287,-0.13989736139774323,0.6046212911605835,-8.7577943801879883,0.60469949245452881,8
0.75524699687957764,0.97700190544128418,0.49509599804878235,0.33551076054573059,-1.4660433530807495,0.0059107211418449879,-0.20594625174999237,-9.5098676681518555,0.30621376633644104,8
0.9985540509223938,0.98557877540588379,0.50366461277008057,0.56683957576751709,-1.4319305419921875,0.039670340716838837,-0.90950661897659302,-9.6621170043945312,0.15003818273544312,8
-0.97955048084259033,0.98554390668869019,0.72433841228485107,-0.45186373591423035,-1.4330323934555054,0.1747722327709198,0.77331745624542236,-9.6757144927978516,0.092315815389156342,8
-0.76255488395690918,0.98572242259979248,0.76255404949188232,-0.32609042525291443,-1.4289288520812988,0.32608726620674133,0.7209857702255249,-9.69537353515625,-0.72097057104110718,8
-0.49509567022323608,0.97700166702270508,0.75524699687957764,-0.0059093032032251358,-1.4660449028015137,0.3355104923248291,-0.30621626973152161,-9.5098819732666016,-0.20593641698360443,8
-0.29217162728309631,0.97280532121658325,0.73075944185256958,0.040268413722515106,-1.4897035360336304,0.22297897934913635,-0.16083954274654388,-9.4427986145019531,0.1998831182718277,8
-0.098654530942440033,0.97202253341674805,0.72321516275405884,0.014334744773805141,-1.4980330467224121,0.17172358930110931,0.048512749373912811,-9.4539775848388672,0.18338529765605927,8
0.098654180765151978,0.97202253341674805,0.72321510314941406,-0.014336446300148964,-1.4980320930480957,0.17172276973724365,-0.048506826162338257,-9.4539670944213867,0.18337546288967133,8
0.29217159748077393,0.97280579805374146,0.73075860738754272,-0.040268898010253906,-1.4896959066390991,0.22297130525112152,0.16083675622940063,-9.4428768157958984,0.19976241886615753,8
0.49509599804878235,0.97700190544128418,0.75524693727493286,0.0059102857485413551,-1.4660435914993286,0.33550930023193359,0.30620810389518738,-9.5098714828491211,-0.20594446361064911,8
0.76255488395690918,0.98572248220443726,0.76255404949188232,0.32609066367149353,-1.4289278984069824,0.32608729600906372,-0.72098308801651001,-9.6953763961791992,-0.72096788883209229,8
0.97955065965652466,0.98554390668869019,0.72433841228485107,0.451865553855896,-1.4330317974090576,0.17477226257324219,-0.77331477403640747,-9.6757144927978516,0.092317156493663788,8
-0.93164485692977905,0.98435825109481812,0.93164479732513428,-0.255289226770401,-1.4407590627670288,0.25528913736343384,-0.34109649062156677,-9.6489887237548828,0.34109693765640259,8
-0.72433841228485107,0.98554390668869019,0.97955054044723511,-0.17477260529994965,-1.4330319166183472,0.45186477899551392,-0.092314921319484711,-9.6757144927978516,-0.77331745624542236,8
-0.50366461277008057,0.98557865619659424,0.99855387210845947,-0.039669875055551529,-1.4319314956665039,0.56683856248855591,-0.15003728866577148,-9.6621208190917969,-0.90951019525527954,8
-0.29950892925262451,0.98523563146591187,0.99853777885437012,0.00055247725686058402,-1.4337259531021118,0.57585340738296509,-0.063392743468284607,-9.6466856002807617,-0.7710992693901062,8
-0.099741995334625244,0.98512548208236694,0.99765151739120483,0.0023575157392770052,-1.434546947479248,0.57152539491653442,-0.0012256785994395614,-9.6450624465942383,-0.71894997358322144,8
0.099741831421852112,0.98512548208236694,0.99765157699584961,-0.0023584389127790928,-1.4345462322235107,0.5715259313583374,0.0012281931703910232,-9.6450586318969727,-0.71894997358322144,8
0.29950892925262451,0.98523563146591187,0.9985385537147522,-0.0005526656168513,-1.4337241649627686,0.57585608959197998,0.06339225172996521,-9.6466817855834961,-0.77111715078353882,8
0.50366461277008057,0.98557877540588379,0.99855393171310425,0.03967001661658287,-1.4319306612014771,0.56683909893035889,0.15003706514835358,-9.6621170043945312,-0.90950840711593628,8
0.72433841228485107,0.98554390668869019,0.97955054044723511,0.17477284371852875,-1.4330317974090576,0.45186486840248108,0.092315815389156342,-9.6757144927978516,-0.77331477403640747,8
0.93164491653442383,0.98435837030410767,0.93164479732513428,0.25528988242149353,-1.4407589435577393,0.25528913736343384,0.34109961986541748,-9.6489887237548828,0.34109649062156677,8
-0.92489320039749146,1.1910414695739746,-0.92489314079284668,-0.20161677896976471,-1.3804541826248169,-0.20161683857440948,-0.31410989165306091,-9.5025796890258789,-0.31410989165306091,8
-0.71973592042922974,1.2016518115997314,-0.96318411827087402,-0.14150840044021606,-1.3299984931945801,-0.35450777411460876,-0.081285230815410614,-9.7287931442260742,0.61339163780212402,8
-0.50363028049468994,1.2062543630599976,-0.97955167293548584,-0.038569163531064987,-1.2967265844345093,-0.45189884305000305,-0.1362137496471405,-9.7175350189208984,0.77259683609008789,8
-0.30003011226654053,1.2065818309783936,-0.98075985908508301,-0.0036412342451512814,-1.2911866903305054,-0.46673464775085449,-0.058718778192996979,-9.6747760772705078,0.6977265477180481,8
-0.09988788515329361,1.2062951326370239,-0.98036849498748779,0.00084734434494748712,-1.2932801246643066,-0.46496200561523438,-0.0049547329545021057,-9.666900634765625,0.6698262095451355,8
0.099887870252132416,1.2062937021255493,-0.98036855459213257,-0.00084742158651351929,-1.2932838201522827,-0.46496286988258362,0.0049540572799742222,-9.6668596267700195,0.66982173919677734,8
0.30003011226654053,1.2065813541412354,-0.98075991868972778,0.0036410209722816944,-1.2911880016326904,-0.46673497557640076,0.058717973530292511,-9.6747760772705078,0.6977238655090332,8
0.50363022089004517,1.2062543630599976,-0.97955167293548584,0.038568779826164246,-1.2967268228530884,-0.45189917087554932,0.13621318340301514,-9.7175369262695312,0.77259594202041626,8
0.71973586082458496,1.2016518115997314,-0.96318429708480835,0.14150825142860413,-1.3299986124038696,-0.35450851917266846,0.081284783780574799,-9.7287969589233398,0.61339163780212402,8
0.92489320039749146,1.1910414695739746,-0.92489314079284668,0.20161688327789307,-1.3804541826248169,-0.20161727070808411,0.31411033868789673,-9.5025796890258789,-0.31411078572273254,8
-0.96318399906158447,1.2016516923904419,-0.71973586082458496,-0.35450693964958191,-1.3299989700317383,-0.14150813221931458,0.61339163780212402,-9.7287969589233398,-0.081285230815410614,8
-0.7529023289680481,1.2348189353942871,-0.7529023289680481,-0.25772875547409058,-1.2137705087661743,-0.25772854685783386,0.76538527011871338,-10.575348854064941,0.76538527011871338,8
-0.50380748510360718,1.2444730997085571,-0.76255565881729126,-0.042672138661146164,-1.145311713218689,-0.32614466547966003,-0.11701270192861557,-10.529010772705078,0.71994328498840332,8
-0.29801982641220093,1.2390563488006592,-0.75713557004928589,0.0059101195074617863,-1.1607809066772461,-0.31057196855545044,-0.10732159018516541,-10.325730323791504,0.51846027374267578,8
-0.099503777921199799,1.2368016242980957,-0.75488215684890747,0.0040592011064291,-1.1738244295120239,-0.29750686883926392,-0.0048636686988174915,-10.287193298339844,0.48064914345741272,8
0.099503770470619202,1.2368016242980957,-0.75488215684890747,-0.0040594283491373062,-1.1738249063491821,-0.2975068986415863,0.0048625371418893337,-10.287190437316895,0.48065093159675598,8
0.29801976680755615,1.2390563488006592,-0.75713574886322021,-0.0059106126427650452,-1.1607810258865356,-0.31057220697402954,0.10732104629278183,-10.325726509094238,0.51846206188201904,8
0.50380706787109375,1.2444730997085571,-0.76255571842193604,0.042670700699090958,-1.145311713218689,-0.3261449933052063,0.11702130734920502,-10.529008865356445,0.71994328498840332,8
0.7529023289680481,1.2348189353942871,-0.7529023289680481,0.25772863626480103,-1.2137703895568848,-0.25772878527641296,-0.76538437604904175,-10.575348854064941,0.76538527011871338,8
0.96318399906158447,1.2016516923904419,-0.71973586082458496,0.35450729727745056,-1.3299989700317383,-0.14150829613208771,-0.61339074373245239,-9.7287969589233398,-0.081285677850246429,8
-0.97955101728439331,1.2062540054321289,-0.50363022089004517,-0.45189574360847473,-1.2967288494110107,-0.038568519055843353,0.77257537841796875,-9.7175407409667969,-0.13621273636817932,8
-0.76255577802658081,1.2444729804992676,-0.50380688905715942,-0.32614505290985107,-1.1453137397766113,-0.042670018970966339,0.71994328498840332,-10.529010772705078,-0.11702220141887665,8
-0.49511408805847168,1.2372097969055176,-0.49511310458183289,-0.0065644253045320511,-1.1339294910430908,-0.0065603381954133511,-0.31544092297554016,-9.9786396026611328,-0.31545889377593994,8
-0.29217556118965149,1.213171124458313,-0.49124494194984436,0.040403373539447784,-1.2395433187484741,0.012760251760482788,-0.154558926820755,-9.6255874633789062,-0.31822395324707031,8
-0.098582901060581207,1.205359935760498,-0.4901842474937439,0.01569758914411068,-1.2935295104980469,0.025211131200194359,0.047017697244882584,-9.5633869171142578,-0.3461335301399231,8
0.098582714796066284,1.205359935760498,-0.4901842474937439,-0.015698755159974098,-1.2935295104980469,0.025211077183485031,-0.047020070254802704,-9.5633869171142578,-0.34613111615180969,8
0.29217544198036194,1.213171124458313,-0.49124497175216675,-0.040404573082923889,-1.2395429611206055,0.012761024758219719,0.15455569326877594,-9.6255855560302734,-0.31824034452438354,8
0.49511364102363586,1.2372097969055176,-0.4951135516166687,0.0065624872222542763,-1.1339288949966431,-0.0065617775544524193,0.31544587016105652,-9.9786376953125,-0.31544974446296692,8
0.76255577802658081,1.2444730997085571,-0.5038069486618042,0.32614502310752869,-1.1453125476837158,-0.042670279741287231,-0.71994328498840332,-10.529012680053711,-0.11702242493629456,8
0.97955113649368286,1.2062540054321289,-0.50363022089004517,0.45189657807350159,-1.296728253364563,-0.038568586111068726,-0.77257359027862549,-9.7175407409667969,-0.13621318340301514,8
-0.98075979948043823,1.2065800428390503,-0.30003011226654053,-0.46673429012298584,-1.2911944389343262,-0.0036410668399184942,0.69772118330001831,-9.6747398376464844,-0.058717295527458191,8
-0.75713646411895752,1.2390545606613159,-0.29801976680755615,-0.31057515740394592,-1.1607880592346191,0.0059105991385877132,0.51847279071807861,-10.325699806213379,-0.10732016712427139,8
-0.49124565720558167,1.2131708860397339,-0.29217544198036194,0.01275652926415205,-1.2395443916320801,0.040404558181762695,-0.31821355223655701,-9.6255836486816406,-0.15455646812915802,8
-0.293597012758255,1.1939570903778076,-0.29359683394432068,0.049418225884437561,-1.3199253082275391,0.049419697374105453,0.025743504986166954,-9.7433261871337891,0.025743728503584862,8
-0.09799233078956604,1.1876761913299561,-0.29473179578781128,0.028193829581141472,-1.3838030099868774,0.048433646559715271,-0.017756558954715729,-9.4751672744750977,0.088039815425872803,8
0.097992002964019775,1.1876761913299561,-0.29473179578781128,-0.028196029365062714,-1.3838030099868774,0.048433657735586166,0.017763152718544006,-9.4751710891723633,0.088041491806507111,8
0.29359656572341919,1.1939570903778076,-0.29359686374664307,-0.049420222640037537,-1.3199251890182495,0.049419630318880081,-0.025737470015883446,-9.7433290481567383,0.025746745988726616,8
0.49124550819396973,1.213171124458313,-0.29217547178268433,-0.012758716009557247,-1.2395431995391846,0.040404267609119415,0.31822946667671204,-9.6255874633789062,-0.15455624461174011,8
0.75713646411895752,1.2390561103820801,-0.29801979660987854,0.31057471036911011,-1.1607829332351685,0.0059104394167661667,-0.51847726106643677,-10.325733184814453,-0.10732090473175049,8
0.98075985908508301,1.2065800428390503,-0.30003011226654053,0.46673494577407837,-1.2911932468414307,-0.0036411071196198463,-0.69771939516067505,-9.6747398376464844,-0.058717861771583557,8
-0.98036855459213257,1.2062933444976807,-0.099887870252132416,-0.46496281027793884,-1.2932878732681274,0.00084711832460016012,0.66982173919677734,-9.6668701171875,-0.0049539175815880299,8
-0.75488227605819702,1.2368015050888062,-0.099503882229328156,-0.29750803112983704,-1.1738275289535522,0.0040586716495454311,0.48064824938774109,-10.287193298339844,-0.0048591564409434795,8
-0.49018487334251404,1.205359935760498,-0.098582886159420013,0.025207823142409325,-1.2935298681259155,0.015697559341788292,-0.34612682461738586,-9.563385009765625,0.047022752463817596,8
-0.29473221302032471,1.1876761913299561,-0.097992345690727234,0.048431582748889923,-1.3838028907775879,0.028194081038236618,0.088048309087753296,-9.4751672744750977,-0.017748512327671051,8
-0.098888196051120758,1.1841671466827393,-0.098888367414474487,0.018165821209549904,-1.4223641157150269,0.018165821209549904,0.099315263330936432,-9.4384174346923828,0.099326387047767639,8
0.098887942731380463,1.1841671466827393,-0.098888374865055084,-0.018167564645409584,-1.4223642349243164,0.018165862187743187,-0.099315851926803589,-9.4384212493896484,0.099328480660915375,8
0.29473179578781128,1.1876761913299561,-0.097992353141307831,-0.048433203250169754,-1.3838027715682983,0.028194472193717957,-0.088041827082633972,-9.4751672744750977,-0.017751194536685944,8
0.4901852011680603,1.205359935760498,-0.098582960665225983,-0.025207184255123138,-1.2935291528701782,0.015697505325078964,0.34611502289772034,-9.563385009765625,0.047026272863149643,8
0.75488227605819702,1.2368015050888062,-0.099503807723522186,0.29750818014144897,-1.1738262176513672,0.0040588192641735077,-0.48065003752708435,-10.287193298339844,-0.0048616151325404644,8
0.98036867380142212,1.2062934637069702,-0.099887877702713013,0.46496319770812988,-1.2932866811752319,0.00084700778825208545,-0.66981726884841919,-9.6668615341186523,-0.0049542649649083614,8
-0.98036855459213257,1.2062933444976807,0.09988788515329361,-0.46496281027793884,-1.2932878732681274,-0.00084751436952501535,0.66982173919677734,-9.6668720245361328,0.0049539455212652683,8
-0.75488227605819702,1.2368015050888062,0.099503591656684875,-0.29750785231590271,-1.1738274097442627,-0.0040600025095045567,0.48065093159675598,-10.287193298339844,0.0048675523139536381,8
-0.49018478393554688,1.205359935760498,0.098582617938518524,0.025208564475178719,-1.2935298681259155,-0.015699455514550209,-0.34612381458282471,-9.5633888244628906,-0.047009315341711044,8
-0.29473212361335754,1.1876763105392456,0.097992226481437683,0.048431836068630219,-1.3838027715682983,-0.028194962069392204,0.088045850396156311,-9.475163459777832,0.01775817945599556,8
-0.098888307809829712,1.1841671466827393,0.098888061940670013,0.018165888264775276,-1.4223641157150269,-0.018167180940508842,0.099314175546169281,-9.4384174346923828,-0.099309735000133514,8
0.098887942731380463,1.1841671466827393,0.098888091742992401,-0.018167397007346153,-1.4223644733428955,-0.018166773021221161,-0.099313452839851379,-9.4384279251098633,-0.099315375089645386,8
0.29473182559013367,1.1876763105392456,0.097992122173309326,-0.048432879149913788,-1.3838030099868774,-0.028194604441523552,-0.088041603565216064,-9.4751749038696289,0.017756335437297821,8
0.49018514156341553,1.2053600549697876,0.098582766950130463,-0.025207240134477615,-1.2935289144515991,-0.015698432922363281,0.34611481428146362,-9.5633888244628906,-0.047016523778438568,8
0.75488227605819702,1.2368015050888062,0.099503591656684875,0.29750767350196838,-1.1738255023956299,-0.0040599354542791843,-0.48065093159675598,-10.287193298339844,0.0048674964345991611,8
0.98036867380142212,1.2062934637069702,0.099887780845165253,0.46496328711509705,-1.2932854890823364,-0.00084788049571216106,-0.66981816291809082,-9.6668634414672852,0.0049565332010388374,8
-0.98075985908508301,1.2065800428390503,0.3000301718711853,-0.46673443913459778,-1.2911943197250366,0.0036411690525710583,0.69772207736968994,-9.6747379302978516,0.058717582374811172,8
-0.75713646411895752,1.2390545606613159,0.29801985621452332,-0.31057503819465637,-1.1607877016067505,-0.0059105046093463898,0.5184781551361084,-10.325699806213379,0.10732045769691467,8
-0.4912450909614563,1.213171124458313,0.29217520356178284,0.012760018929839134,-1.2395439147949219,-0.040405280888080597,-0.31823867559432983,-9.6255893707275391,0.15456674993038177,8
-0.29359671473503113,1.1939569711685181,0.29359674453735352,0.049418218433856964,-1.3199248313903809,-0.049418490380048752,0.025756021961569786,-9.7433404922485352,-0.025759262964129448,8
-0.097992300987243652,1.1876763105392456,0.29473218321800232,0.028193959966301918,-1.3838026523590088,-0.048432279378175735,-0.017758626490831375,-9.475163459777832,-0.088048756122589111,8
0.097991988062858582,1.1876763105392456,0.29473218321800232,-0.028195187449455261,-1.3838030099868774,-0.048432115465402603,0.017757285386323929,-9.4751749038696289,-0.088051438331604004,8
0.29359695315361023,1.1939564943313599,0.293597012758255,-0.049419146031141281,-1.3199309110641479,-0.0494191013276577,-0.025749651715159416,-9.7432632446289062,-0.025750657543540001,8
0.49124550819396973,1.2131713628768921,0.29217559099197388,-0.012758462689816952,-1.2395423650741577,-0.040404051542282104,0.31823009252548218,-9.6255960464477539,0.15455624461174011,8
0.75713592767715454,1.2390564680099487,0.29801982641220093,0.31057250499725342,-1.160780668258667,-0.0059105614200234413,-0.51846295595169067,-10.32573127746582,0.1073203980922699,8
0.98075985908508301,1.2065814733505249,0.30003014206886292,0.46673440933227539,-1.2911878824234009,0.0036409478634595871,-0.69772297143936157,-9.6747760772705078,0.05871766060590744,8
-0.97955101728439331,1.2062540054321289,0.50363028049468994,-0.45189595222473145,-1.2967287302017212,0.038569040596485138,0.77257537841796875,-9.7175388336181641,0.13621285557746887,8
-0.76255583763122559,1.2444729804992676,0.5038074254989624,-0.32614532113075256,-1.1453136205673218,0.042671825736761093,0.71994596719741821,-10.529010772705078,0.11701225489377975,8
-0.4951140284538269,1.2372097969055176,0.4951140284538269,-0.0065632257610559464,-1.1339292526245117,0.0065634697675704956,-0.315437912940979,-9.9786415100097656,0.31543964147567749,8
-0.29217517375946045,1.2131708860397339,0.49124535918235779,0.040405005216598511,-1.2395443916320801,-0.012759333476424217,-0.15456821024417877,-9.6255817413330078,0.31823346018791199,8
-0.09858287125825882,1.205359935760498,0.4901847243309021,0.015698112547397614,-1.2935298681259155,-0.025208847597241402,0.047013923525810242,-9.563385009765625,0.3461262583732605,8
0.098582543432712555,1.205359935760498,0.4901847243309021,-0.015699094161391258,-1.2935292720794678,-0.025208799168467522,-0.047011576592922211,-9.5633888244628906,0.34612515568733215,8
0.2921755313873291,1.2131713628768921,0.49124535918235779,-0.040403999388217926,-1.2395424842834473,-0.012759273871779442,0.15455614030361176,-9.6255979537963867,0.31823071837425232,8
0.49511405825614929,1.2372101545333862,0.49511358141899109,0.0065639587119221687,-1.1339277029037476,0.0065624401904642582,0.3154391348361969,-9.9786453247070312,0.31544792652130127,8
0.76255571842193604,1.2444732189178467,0.50380706787109375,0.32614472508430481,-1.1453109979629517,0.042670555412769318,-0.71994507312774658,-10.529010772705078,0.11702164262533188,8
0.97955113649368286,1.2062543630599976,0.50363022089004517,0.45189657807350159,-1.2967262268066406,0.038568686693906784,-0.77257537841796875,-9.7175369262695312,0.13621273636817932,8
-0.96318399906158447,1.2016516923904419,0.71973592042922974,-0.35450690984725952,-1.3299989700317383,0.14150813221931458,0.61339163780212402,-9.7287969589233398,0.081285230815410614,8
-0.7529023289680481,1.2348190546035767,0.75290238857269287,-0.25772854685783386,-1.2137705087661743,0.2577284574508667,0.76538527011871338,-10.575352668762207,-0.76538527011871338,8
-0.50380706787109375,1.2444729804992676,0.76255583763122559,-0.042670585215091705,-1.1453133821487427,0.32614502310752869,-0.11702130734920502,-10.529021263122559,-0.71994507312774658,8
-0.29801976680755615,1.2390545606613159,0.75713580846786499,0.0059107481501996517,-1.1607877016067505,0.3105722963809967,-0.10732159018516541,-10.325701713562012,-0.51846027374267578,8
-0.099503830075263977,1.2368015050888062,0.75488138198852539,0.0040589398704469204,-1.1738272905349731,0.29750418663024902,-0.0048620342276990414,-10.287193298339844,-0.48063573241233826,8
0.099503464996814728,1.2368015050888062,0.75488132238388062,-0.004060450941324234,-1.1738256216049194,0.29750406742095947,0.0048704301007091999,-10.287193298339844,-0.48063573241233826,8
0.29801976680755615,1.2390564680099487,0.75713562965393066,-0.0059108664281666279,-1.160780668258667,0.31057143211364746,0.10732055455446243,-10.32573127746582,-0.51846474409103394,8
0.50380706787109375,1.2444732189178467,0.76255577802658081,0.042670771479606628,-1.1453109979629517,0.32614472508430481,0.11702030152082443,-10.529010772705078,-0.71994507312774658,8
0.7529023289680481,1.2348190546035767,0.7529023289680481,0.25772854685783386,-1.2137699127197266,0.2577282190322876,-0.76538527011871338,-10.575348854064941,-0.76538437604904175,8
0.96318399906158447,1.2016518115997314,0.71973592042922974,0.35450723767280579,-1.329998254776001,0.14150798320770264,-0.61339074373245239,-9.7287931442260742,0.081285230815410614,8
-0.92489320039749146,1.1910414695739746,0.92489314079284668,-0.20161664485931396,-1.3804541826248169,0.20161661505699158,-0.31410855054855347,-9.5025796890258789,0.31410899758338928,8
-0.71973586082458496,1.2016518115997314,0.96318405866622925,-0.14150810241699219,-1.3299987316131592,0.35450753569602966,-0.081283889710903168,-9.7287969589233398,-0.61339253187179565,8
