x,y,z,vx,vy,vz,ax,ay,az,mass
-1.5468775033950806,-78.51666259765625,-1.5468744039535522,-0.16833163797855377,-39.216838836669922,-0.16833096742630005,-3.2633543014526367e-05,-9.8101034164428711,-3.2633543014526367e-05,8
-1.2775559425354004,-78.5623779296875,-1.5848026275634766,-0.16820657253265381,-39.216922760009766,-0.16830387711524963,-0.00029772517154924572,-9.8097600936889648,-7.3760740633588284e-05,8
-0.62905633449554443,-78.669578552246094,-1.7453393936157227,-0.010432073846459389,-39.246379852294922,-0.23002177476882935,0.0066301408223807812,-9.8094167709350586,-0.0021444261074066162,8
-0.3658638596534729,-78.668014526367188,-1.7838501930236816,-0.0070402259007096291,-39.246238708496094,-0.23049905896186829,0.0044625392183661461,-9.8094167709350586,-0.0015959142474457622,8
-0.11982473731040955,-78.66253662109375,-1.8044188022613525,-0.0024068881757557392,-39.246097564697266,-0.23089328408241272,0.0015278601786121726,-9.8096456527709961,-0.0011721252230927348,8
0.11982160061597824,-78.66253662109375,-1.8044202327728271,0.0024057605769485235,-39.246097564697266,-0.23089347779750824,-0.0015278671635314822,-9.8096456527709961,-0.0011721252230927348,8
0.36586001515388489,-78.668014526367188,-1.7838555574417114,0.0070390314795076847,-39.246238708496094,-0.23049965500831604,-0.0044625252485275269,-9.8094167709350586,-0.0015954672126099467,8
0.62905287742614746,-78.669578552246094,-1.7453458309173584,0.010430881753563881,-39.246379852294922,-0.23002269864082336,-0.0066300570033490658,-9.8094167709350586,-0.0021439790725708008,8
1.2775561809539795,-78.5623779296875,-1.5848078727722168,0.16820654273033142,-39.216922760009766,-0.16830502450466156,0.00029772517154924572,-9.8097600936889648,-7.3760740633588284e-05,8
1.5468783378601074,-78.516677856445312,-1.5468801259994507,0.16833159327507019,-39.216838836669922,-0.16833209991455078,3.2633543014526367e-05,-9.8101034164428711,-3.2633543014526367e-05,8
-1.5848038196563721,-78.5623779296875,-1.277552604675293,-0.16830454766750336,-39.216922760009766,-0.16820588707923889,-7.3760740633588284e-05,-9.8097600936889648,-0.00029772517154924572,8
-1.2889890670776367,-78.650062561035156,-1.2889853715896606,-0.16802415251731873,-39.217239379882812,-0.16802346706390381,-0.00063166016479954123,-9.8094167709350586,-0.00063166016479954123,8
-0.58391487598419189,-78.849945068359375,-1.1586881875991821,-0.0067033646628260612,-39.285724639892578,-0.11215803027153015,0.0043751578778028488,-9.8104467391967773,0.00056862825294956565,8
-0.32752802968025208,-78.852935791015625,-1.1020009517669678,-0.0039664870128035545,-39.285854339599609,-0.11180270463228226,0.0026313725393265486,-9.8101034164428711,-0.00012047588097630069,8
-0.10612618178129196,-78.849983215332031,-1.0704666376113892,-0.001312781241722405,-39.285919189453125,-0.111631840467453,0.00087419402552768588,-9.8101034164428711,-0.00045642253826372325,8
0.10610439628362656,-78.849983215332031,-1.0704666376113892,0.0013061146019026637,-39.285919189453125,-0.111631840467453,-0.00087418354814872146,-9.8101034164428711,-0.00045664605568163097,8
0.32750830054283142,-78.852935791015625,-1.1020019054412842,0.0039598871953785419,-39.285854339599609,-0.11180269718170166,-0.0026313306298106909,-9.8101034164428711,-0.0001206993983942084,8
0.58389788866043091,-78.849945068359375,-1.1586897373199463,0.0066969250328838825,-39.285724639892578,-0.11215804517269135,-0.0043752416968345642,-9.8104467391967773,0.00056862825294956565,8
1.2889891862869263,-78.650062561035156,-1.2889903783798218,0.16802415251731873,-39.217239379882812,-0.16802464425563812,0.00063166016479954123,-9.8094167709350586,-0.00063166016479954123,8
1.5848047733306885,-78.5623779296875,-1.2775577306747437,0.16830453276634216,-39.216922760009766,-0.16820703446865082,7.3760740633588284e-05,-9.8097600936889648,-0.00029772517154924572,8
-1.7453374862670898,-78.669578552246094,-0.62904208898544312,-0.23002083599567413,-39.246376037597656,-0.010428580455482006,-0.0021444261074066162,-9.8094167709350586,0.0066295540891587734,8
-1.1586983203887939,-78.849937438964844,-0.58383852243423462,-0.11215829104185104,-39.285720825195312,-0.0066765286028385162,0.00056929880520328879,-9.8104467391967773,0.0043745711445808411,8
-0.50403773784637451,-78.86859130859375,-0.5031355619430542,-0.0010219936957582831,-39.289085388183594,-0.00072405423270538449,0.00088446884183213115,-9.8101034164428711,0.00087959686061367393,8
-0.27779251337051392,-78.830726623535156,-0.49025177955627441,-0.00068735430249944329,-39.289051055908203,-0.00064339902019128203,0.00058190483832731843,-9.8101034164428711,0.00080479885218665004,8
-0.090006694197654724,-78.811172485351562,-0.48523163795471191,-0.00025699450634419918,-39.289031982421875,-0.00060983619187027216,0.00019561876251827925,-9.8101034164428711,0.00077340513234958053,8
0.089798904955387115,-78.811172485351562,-0.48523125052452087,0.00017990286869462579,-39.289031982421875,-0.00060987635515630245,-0.00019547426200006157,-9.8101034164428711,0.0007734383107163012,8
0.27758598327636719,-78.830726623535156,-0.49025103449821472,0.00061025924514979124,-39.289051055908203,-0.00064352387562394142,-0.00058178085600957274,-9.8101034164428711,0.00080490362597629428,8
0.50383901596069336,-78.86859130859375,-0.5031360387802124,0.00094490911578759551,-39.289085388183594,-0.00072426378028467298,-0.00088439899263903499,-9.8101034164428711,0.00087977672228589654,8
1.158696174621582,-78.849945068359375,-0.58383816480636597,0.11215890198945999,-39.285724639892578,-0.0066764471121132374,-0.00056907528778538108,-9.8104467391967773,0.0043745012953877449,8
1.7453397512435913,-78.669601440429688,-0.62904202938079834,0.23002144694328308,-39.246383666992188,-0.010428580455482006,0.0021435320377349854,-9.8094167709350586,0.006629470270127058,8
-1.7838476896286011,-78.668014526367188,-0.36585384607315063,-0.23049797117710114,-39.246238708496094,-0.0070371278561651707,-0.0015959142474457622,-9.8094167709350586,0.0044622039422392845,8
-1.1020067930221558,-78.852928161621094,-0.32743936777114868,-0.11180265992879868,-39.285850524902344,-0.0039394884370267391,-0.0001206993983942084,-9.8101034164428711,0.0026305203791707754,8
-0.49116149544715881,-78.8306884765625,-0.27686947584152222,-0.00094012921908870339,-39.289047241210938,-0.00039058405673131347,0.00080795428948476911,-9.8101034164428711,0.00057866645511239767,8
-0.27723103761672974,-78.817207336425781,-0.27632522583007812,-0.0006519999005831778,-39.289024353027344,-0.0003559117903932929,0.00054870732128620148,-9.8101034164428711,0.00054644158808514476,8
-0.086029164493083954,-78.801933288574219,-0.2772098183631897,-0.00023395873722620308,-39.28900146484375,-0.00034239439992234111,0.00017472861509304494,-9.8101034164428711,0.00053355615818873048,8
0.085812285542488098,-78.80194091796875,-0.27721032500267029,0.00015692017041146755,-39.28900146484375,-0.00034243191475979984,-0.00017459852097090334,-9.8101034164428711,0.00053358759032562375,8
0.27701264619827271,-78.817207336425781,-0.27632570266723633,0.00057494203792884946,-39.289024353027344,-0.00035602349089458585,-0.00054857286158949137,-9.8101034164428711,0.00054653675761073828,8
0.490944504737854,-78.830711364746094,-0.2768704891204834,0.00086307874880731106,-39.289051055908203,-0.00039078976260498166,-0.00080784776946529746,-9.8101034164428711,0.00057884282432496548,8
1.102006196975708,-78.852935791015625,-0.32743933796882629,0.11180337518453598,-39.285854339599609,-0.0039394893683493137,0.0001206993983942084,-9.8101034164428711,0.0026305343490093946,8
1.7838485240936279,-78.668022155761719,-0.3658536970615387,0.23049861192703247,-39.246242523193359,-0.0070371557958424091,0.0015959142474457622,-9.8094167709350586,0.0044621480628848076,8
-1.8044157028198242,-78.662528991699219,-0.11981835961341858,-0.23089198768138885,-39.246097564697266,-0.0024042248260229826,-0.0011721252230927348,-9.8096456527709961,0.0015277763595804572,8
-1.0704700946807861,-78.8499755859375,-0.10603610426187515,-0.11163166910409927,-39.285915374755859,-0.0012861309805884957,-0.00045686957309953868,-9.8101034164428711,0.00087357586016878486,8
-0.48606774210929871,-78.811141967773438,-0.089144311845302582,-0.00090509699657559395,-39.289024353027344,3.8136731745908037e-05,0.00077449477976188064,-9.8101034164428711,0.00019453653658274561,8
-0.27804267406463623,-78.801918029785156,-0.08517930656671524,-0.00063743896316736937,-39.288997650146484,6.1044258472975343e-05,0.00053440395276993513,-9.8101034164428711,0.00017387395200785249,8
-0.086838878691196442,-78.793006896972656,-0.086032949388027191,-0.00023081318067852408,-39.288978576660156,6.3849678554106504e-05,0.00017155527893919498,-9.8101034164428711,0.00017114600632339716,8
0.086616821587085724,-78.793014526367188,-0.086033836007118225,0.00015387771418318152,-39.288978576660156,6.3811006839387119e-05,-0.00017149197810795158,-9.8101034164428711,0.00017117983952630311,8
0.27781641483306885,-78.801925659179688,-0.08518044650554657,0.00056048121768981218,-39.288997650146484,6.0932292399229482e-05,-0.00053433061111718416,-9.8101034164428711,0.00017397174087818712,8
0.48584026098251343,-78.8111572265625,-0.089145578444004059,0.00082813028711825609,-39.289028167724609,3.7961912312312052e-05,-0.00077442493056878448,-9.8101034164428711,0.00019468988466542214,8
1.0704700946807861,-78.849983215332031,-0.10603640228509903,0.11163245141506195,-39.285919189453125,-0.0012862434377893806,0.00045664605568163097,-9.8101034164428711,0.00087355490541085601,8
1.8044165372848511,-78.66253662109375,-0.11981843411922455,0.230892613530159,-39.246101379394531,-0.0024043007288128138,0.0011721252230927348,-9.8096456527709961,0.001527762389741838,8
-1.8044157028198242,-78.662528991699219,0.11982620507478714,-0.23089198768138885,-39.246097564697266,0.002408130094408989,-0.0011721252230927348,-9.8096456527709961,-0.0015278042992576957,8
-1.070470929145813,-78.8499755859375,0.10618196427822113,-0.11163162440061569,-39.285915374755859,0.0013318588025867939,-0.00045664605568163097,-9.8101034164428711,-0.00087424990488216281,8
-0.48598873615264893,-78.811141967773438,0.090573415160179138,-0.00090355903375893831,-39.289024353027344,0.00047329658991657197,0.00077233294723555446,-9.8101034164428711,-0.00019419645832385868,8
-0.27798560261726379,-78.801918029785156,0.08659788966178894,-0.00063642102759331465,-39.288993835449219,0.00045082552242092788,0.00053301220759749413,-9.8101034164428711,-0.00017398122872691602,8
-0.08681921660900116,-78.792999267578125,0.087399758398532867,-0.00023044366389513016,-39.288974761962891,0.00044813333079218864,0.00017107288294937462,-9.8101034164428711,-0.00017139156989287585,8
0.086597591638565063,-78.792999267578125,0.087399892508983612,0.00015362836711574346,-39.288974761962891,0.00044810149120166898,-0.00017111697525251657,-9.8101034164428711,-0.00017136275710072368,8
0.27775919437408447,-78.801918029785156,0.086597003042697906,0.00055958284065127373,-39.288993835449219,0.00045072007924318314,-0.0005330436397343874,-9.8101034164428711,-0.0001738869323162362,8
0.48576012253761292,-78.811149597167969,0.090571194887161255,0.00082672451389953494,-39.289024353027344,0.00047315220581367612,-0.00077237660298123956,-9.8101034164428711,-0.00019406461797188967,8
1.0704703330993652,-78.849983215332031,0.10618176311254501,0.11163244396448135,-39.285919189453125,0.0013317830162122846,0.00045664605568163097,-9.8101034164428711,-0.00087426736718043685,8
1.8044164180755615,-78.66253662109375,0.11982590705156326,0.230892613530159,-39.246101379394531,0.0024080069269984961,0.0011721252230927348,-9.8096456527709961,-0.0015277833444997668,8
-1.783846378326416,-78.668014526367188,0.36586388945579529,-0.23049795627593994,-39.246238708496094,0.007041233591735363,-0.0015959142474457622,-9.8094167709350586,-0.0044623715803027153,8
-1.1020060777664185,-78.852928161621094,0.32756906747817993,-0.11180248111486435,-39.285854339599609,0.0039845160208642483,-0.0001206993983942084,-9.8101034164428711,-0.0026307718362659216,8
-0.49094071984291077,-78.8306884765625,0.27827745676040649,-0.00093546806601807475,-39.289043426513672,0.00090194714721292257,0.00080135528696700931,-9.8101034164428711,-0.0005780718638561666,8
-0.27705588936805725,-78.817184448242188,0.27773776650428772,-0.00064873573137447238,-39.289016723632812,0.00086762994760647416,0.00054423348046839237,-9.8101034164428711,-0.00054626609198749065,8
-0.085966184735298157,-78.801902770996094,0.27858284115791321,-0.00023277020954992622,-39.288990020751953,0.00085424474673345685,0.00017317403398919851,-9.8101034164428711,-0.0005335675086826086,8
0.08575102686882019,-78.801902770996094,0.27858266234397888,0.00015611143317073584,-39.288990020751953,0.00085421156836673617,-0.00017338620091322809,-9.8101034164428711,-0.00053353607654571533,8
0.27683749794960022,-78.817184448242188,0.27773550152778625,0.00057206378551200032,-39.289016723632812,0.00086752820061519742,-0.00054444477427750826,-9.8101034164428711,-0.00054617179557681084,8
0.49072384834289551,-78.830696105957031,0.27827519178390503,0.00085881573613733053,-39.289043426513672,0.00090183003339916468,-0.00080160325160250068,-9.8101034164428711,-0.00057796185137704015,8
1.1020056009292603,-78.852943420410156,0.3275686502456665,0.11180330067873001,-39.285858154296875,0.0039843772538006306,0.00012047588097630069,-9.8101034164428711,-0.002630674047395587,8
1.783847451210022,-78.668022155761719,0.36586344242095947,0.23049858212471008,-39.246242523193359,0.0070410631597042084,0.0015959142474457622,-9.8094167709350586,-0.0044623296707868576,8
-1.7453362941741943,-78.669578552246094,0.62905609607696533,-0.23002080619335175,-39.246376037597656,0.010432953014969826,-0.0021444261074066162,-9.8094167709350586,-0.0066299452446401119,8
-1.1586928367614746,-78.849937438964844,0.58394354581832886,-0.11215781420469284,-39.285724639892578,0.0067200399935245514,0.00056885177036747336,-9.8104467391967773,-0.0043736910447478294,8
-0.50376391410827637,-78.868560791015625,0.50446206331253052,-0.0010145407868549228,-39.289077758789062,0.0012351564364507794,0.00087382033234462142,-9.8101034164428711,-0.00087845133384689689,8
-0.27756309509277344,-78.830680847167969,0.49162599444389343,-0.00068238325184211135,-39.289039611816406,0.0011548690963536501,0.00057502643903717399,-9.8101034164428711,-0.00080419814912602305,8
-0.089918240904808044,-78.811119079589844,0.48658651113510132,-0.00025510729756206274,-39.289020538330078,0.0011214560363441706,0.00019312689255457371,-9.8101034164428711,-0.00077303842408582568,8
0.089713640511035919,-78.811119079589844,0.48658531904220581,0.00017856912745628506,-39.289020538330078,0.001121420762501657,-0.00019347963097970933,-9.8101034164428711,-0.00077300699194893241,8
0.27735939621925354,-78.830680847167969,0.49162366986274719,0.00060585897881537676,-39.289043426513672,0.001154772937297821,-0.00057541235582903028,-9.8101034164428711,-0.00080410385271534324,8
0.50356745719909668,-78.868560791015625,0.50446087121963501,0.00093807256780564785,-39.289077758789062,0.0012350354809314013,-0.00087429530685767531,-9.8101034164428711,-0.00087833608267828822,8
1.1586915254592896,-78.849945068359375,0.5839429497718811,0.11215860396623611,-39.285728454589844,0.0067198318429291248,-0.00056862825294956565,-9.8104467391967773,-0.0043736910447478294,8
1.7453391551971436,-78.669601440429688,0.62905561923980713,0.2300214022397995,-39.246383666992188,0.010432740673422813,0.0021435320377349854,-9.8094167709350586,-0.0066298334859311581,8
-1.584800124168396,-78.5623779296875,1.2775465250015259,-0.16830313205718994,-39.216922760009766,0.16820418834686279,-7.3760740633588284e-05,-9.8097600936889648,0.00029772517154924572,8
-1.2889848947525024,-78.650062561035156,1.2889795303344727,-0.1680227518081665,-39.217239379882812,0.1680217832326889,-0.00063166016479954123,-9.8094167709350586,0.00063166016479954123,8
-0.58388662338256836,-78.849945068359375,1.1586934328079224,-0.0066997786052525043,-39.285724639892578,0.11215712875127792,0.0043730484321713448,-9.8104467391967773,-0.00056929880520328879,8
-0.3275015652179718,-78.852928161621094,1.1020041704177856,-0.0039641591720283031,-39.285854339599609,0.11180161684751511,0.0026299057062715292,-9.8101034164428711,0.0001206993983942084,8
-0.10611476749181747,-78.849983215332031,1.0704693794250488,-0.0013119973009452224,-39.285919189453125,0.11163068562746048,0.00087371555855497718,-9.8101034164428711,0.00045686957309953868,8
0.10609158873558044,-78.849983215332031,1.0704699754714966,0.0013051008572801948,-39.285919189453125,0.11163070797920227,-0.00087358983000740409,-9.8101034164428711,0.00045686957309953868,8
0.32748034596443176,-78.852928161621094,1.1020060777664185,0.0039572957903146744,-39.285854339599609,0.11180167645215988,-0.0026299057062715292,-9.8101034164428711,0.0001206993983942084,8
0.58386874198913574,-78.849945068359375,1.1586966514587402,0.0066931406036019325,-39.285724639892578,0.11215727031230927,-0.0043731462210416794,-9.8104467391967773,-0.00056929880520328879,8
1.2889864444732666,-78.650062561035156,1.2889900207519531,0.16802357137203217,-39.217239379882812,0.16802436113357544,0.00063166016479954123,-9.8094167709350586,0.00063166016479954123,8
1.5848037004470825,-78.5623779296875,1.2775568962097168,0.1683039665222168,-39.216922760009766,0.16820675134658813,7.3760740633588284e-05,-9.8097600936889648,0.00029772517154924572,8
-1.5468721389770508,-78.51666259765625,1.5468693971633911,-0.16833022236824036,-39.216838836669922,0.16832928359508514,-3.2633543014526367e-05,-9.8101034164428711,3.2633543014526367e-05,8
-1.2775510549545288,-78.5623779296875,1.5847963094711304,-0.1682051420211792,-39.216922760009766,0.16830220818519592,-0.00029772517154924572,-9.8097600936889648,7.3760740633588284e-05,8
-0.62904804944992065,-78.669578552246094,1.7453367710113525,-0.010430728085339069,-39.246379852294922,0.23002184927463531,0.006629470270127058,-9.8094167709350586,0.0021448731422424316,8
-0.36585855484008789,-78.668014526367188,1.7838467359542847,-0.0070392908528447151,-39.246238708496094,0.23049885034561157,0.0044621061533689499,-9.8094167709350586,0.0015963612822815776,8
-0.11982303112745285,-78.66253662109375,1.8044160604476929,-0.0024065161123871803,-39.246097564697266,0.23089282214641571,0.0015277414349839091,-9.8096456527709961,0.0011721252230927348,8
0.11982044577598572,-78.66253662109375,1.8044174909591675,0.0024056052789092064,-39.246097564697266,0.23089289665222168,-0.0015277344500645995,-9.8095312118530273,0.0011721252230927348,8
0.36585569381713867,-78.668014526367188,1.7838524580001831,0.0070383385755121708,-39.246242523193359,0.2304990291595459,-0.0044621061533689499,-9.8094167709350586,0.0015959142474457622,8
0.62904500961303711,-78.669586181640625,1.7453435659408569,0.010429752059280872,-39.246383666992188,0.23002180457115173,-0.0066294143907725811,-9.8094167709350586,0.0021439790725708008,8
1.2775536775588989,-78.5623779296875,1.5848063230514526,0.16820597648620605,-39.216922760009766,0.16830474138259888,0.00029772517154924572,-9.8097600936889648,7.3760740633588284e-05,8
1.5468759536743164,-78.51666259765625,1.5468790531158447,0.16833104193210602,-39.216838836669922,0.1683318167924881,3.2633543014526367e-05,-9.8101034164428711,3.2633543014526367e-05,8
-1.62074875831604,-78.244583129882812,-1.6207464933395386,-0.16860729455947876,-39.216426849365234,-0.16860663890838623,0.00051319599151611328,-9.8107900619506836,0.00051319599151611328,8
-1.3317701816558838,-78.290351867675781,-1.7055381536483765,-0.16842834651470184,-39.216529846191406,-0.16864314675331116,0.00011533498036442325,-9.8104467391967773,0.00060126179596409202,8
-0.63607960939407349,-78.375816345214844,-1.9810481071472168,-0.010299520567059517,-39.240562438964844,-0.24436147511005402,0.0063948328606784344,-9.8107900619506836,0.0014242528704926372,8
-0.36936172842979431,-78.37945556640625,-2.0117220878601074,-0.0069182864390313625,-39.240653991699219,-0.24423764646053314,0.004287203773856163,-9.8107900619506836,0.0016674398211762309,8
-0.12122368812561035,-78.37860107421875,-2.0253138542175293,-0.0023881208617240191,-39.240741729736328,-0.24410469830036163,0.001479056547395885,-9.8107900619506836,0.0018198787001892924,8
0.12122124433517456,-78.37860107421875,-2.0253145694732666,0.0023872118908911943,-39.240741729736328,-0.24410471320152283,-0.0014791124267503619,-9.8107900619506836,0.0018203257350251079,8
0.36935925483703613,-78.37945556640625,-2.0117247104644775,0.0069173672236502171,-39.240653991699219,-0.24423770606517792,-0.0042872456833720207,-9.8107900619506836,0.0016678868560120463,8
0.63607537746429443,-78.375816345214844,-1.981050968170166,0.01029850821942091,-39.240562438964844,-0.24436157941818237,-0.0063948328606784344,-9.8107900619506836,0.0014246999053284526,8
1.3317693471908569,-78.290351867675781,-1.7055442333221436,0.16842831671237946,-39.216529846191406,-0.16864429414272308,-0.00011533498036442325,-9.8104467391967773,0.00060126179596409202,8
1.6207499504089355,-78.244583129882812,-1.6207518577575684,0.16860729455947876,-39.216426849365234,-0.16860780119895935,-0.00051319599151611328,-9.8107900619506836,0.00051319599151611328,8
-1.7055387496948242,-78.290351867675781,-1.3317677974700928,-0.1686437726020813,-39.216529846191406,-0.16842766106128693,0.00060126179596409202,-9.8104467391967773,0.00011533498036442325,8
-1.383472204208374,-78.379371643066406,-1.3834670782089233,-0.16824951767921448,-39.216934204101562,-0.16824883222579956,-0.00019580124353524297,-9.8097600936889648,-0.00019580124353524297,8
-0.571128249168396,-78.611297607421875,-1.2189034223556519,-0.0068249567411839962,-39.285713195800781,-0.11217942833900452,0.0044515449553728104,-9.8104467391967773,0.00061176711460575461,8
-0.31715813279151917,-78.622444152832031,-1.1173752546310425,-0.0038457287009805441,-39.285858154296875,-0.11179082095623016,0.0025552299339324236,-9.8101034164428711,-0.00014238058065529913,8
-0.10384531319141388,-78.623725891113281,-1.0735543966293335,-0.0012790786568075418,-39.285919189453125,-0.11162895709276199,0.00085180386668071151,-9.8101034164428711,-0.0004615634388756007,8
0.1038244217634201,-78.623725891113281,-1.073554515838623,0.0012724165571853518,-39.285919189453125,-0.1116289496421814,-0.00085173401748761535,-9.8101034164428711,-0.0004615634388756007,8
0.31713840365409851,-78.622444152832031,-1.1173760890960693,0.0038391181733459234,-39.285858154296875,-0.11179081350564957,-0.002555132145062089,-9.8101034164428711,-0.00014238058065529913,8
0.57111078500747681,-78.611297607421875,-1.218904972076416,0.0068185259588062763,-39.285713195800781,-0.11217943578958511,-0.0044516706839203835,-9.8104467391967773,0.00061199063202366233,8
1.3834720849990845,-78.379371643066406,-1.38347327709198,0.16824948787689209,-39.216934204101562,-0.16824997961521149,0.00019580124353524297,-9.8097600936889648,-0.00019580124353524297,8
1.7055414915084839,-78.290351867675781,-1.3317707777023315,0.1686437726020813,-39.216529846191406,-0.16842880845069885,-0.00060126179596409202,-9.8104467391967773,0.00011533498036442325,8
-1.9810390472412109,-78.375816345214844,-0.63607078790664673,-0.24435874819755554,-39.240562438964844,-0.010297240689396858,0.0014246999053284526,-9.8107900619506836,0.0063946652226150036,8
-1.218914270401001,-78.611289978027344,-0.57105714082717896,-0.1121797114610672,-39.285709381103516,-0.0067981318570673466,0.00061243766685947776,-9.8104467391967773,0.0044510001316666603,8
-0.43339985609054565,-78.596343994140625,-0.43213322758674622,-0.00082612625556066632,-39.289031982421875,-0.00052864209283143282,0.00070479226997122169,-9.8101034164428711,0.00070083705941215158,8
-0.24697960913181305,-78.570358276367188,-0.4416339099407196,-0.00055330136092379689,-39.28900146484375,-0.00051902560517191887,0.00045990452053956687,-9.8101034164428711,0.0006912118406035006,8
-0.080943301320075989,-78.563735961914062,-0.43678700923919678,-0.00020780354680027813,-39.288990020751953,-0.00051120371790602803,0.00015115014684852213,-9.8101034164428711,0.00068372226087376475,8
0.080700032413005829,-78.563735961914062,-0.43678578734397888,0.00013064441736787558,-39.288990020751953,-0.00051123130833730102,-0.00015091571549419314,-9.8101034164428711,0.0006837432156316936,8
0.24673065543174744,-78.570358276367188,-0.44163462519645691,0.00047611986519768834,-39.28900146484375,-0.00051912304479628801,-0.0004596565559040755,-9.8101034164428711,0.00069129216717556119,8
0.433155357837677,-78.596351623535156,-0.43213248252868652,0.00074896030128002167,-39.289031982421875,-0.00052881694864481688,-0.00070457399124279618,-9.8101034164428711,0.00070098374271765351,8
1.2189123630523682,-78.611297607421875,-0.57105547189712524,0.11218030750751495,-39.285713195800781,-0.0067980624735355377,-0.00061243766685947776,-9.8104467391967773,0.0044509023427963257,8
1.9810384511947632,-78.375823974609375,-0.63607203960418701,0.24435853958129883,-39.240566253662109,-0.010297354310750961,-0.0014233588008210063,-9.8107900619506836,0.0063946652226150036,8
-2.0117111206054688,-78.37945556640625,-0.3693561851978302,-0.2442348301410675,-39.240653991699219,-0.0069162813015282154,0.0016678868560120463,-9.8107900619506836,0.0042871898040175438,8
-1.1173818111419678,-78.622421264648438,-0.3170737624168396,-0.11179076135158539,-39.285854339599609,-0.0038188106846064329,-0.00014238058065529913,-9.8101034164428711,0.00255438475869596,8
-0.44283729791641235,-78.570274353027344,-0.24567320942878723,-0.00081563758431002498,-39.28900146484375,-0.00025635567726567388,0.00069398485356941819,-9.8101034164428711,0.00045680496259592474,8
-0.25197511911392212,-78.557098388671875,-0.25079697370529175,-0.00055797555251047015,-39.288986206054688,-0.00026155202067457139,0.00046327998279593885,-9.8101034164428711,0.00046087978989817202,8
-0.080733545124530792,-78.563323974609375,-0.25878635048866272,-0.00020604138262569904,-39.288978576660156,-0.00027648973627947271,0.00014938951062504202,-9.8101034164428711,0.00047385951620526612,8
0.080490566790103912,-78.563323974609375,-0.25878959894180298,0.00012895805411972106,-39.288978576660156,-0.00027652370044961572,-0.00014920135436113924,-9.8101034164428711,0.00047388832899741828,8
0.25170925259590149,-78.557098388671875,-0.25079873204231262,0.00048082295688800514,-39.288986206054688,-0.00026164285372942686,-0.00046303463750518858,-9.8101034164428711,0.0004609566240105778,8
0.44255954027175903,-78.570289611816406,-0.24567350745201111,0.0007384823402389884,-39.28900146484375,-0.00025651397299952805,-0.00069374562008306384,-9.8101034164428711,0.00045694116852246225,8
1.1173808574676514,-78.622444152832031,-0.31707361340522766,0.11179147660732269,-39.285858154296875,-0.0038187627214938402,0.00014238058065529913,-9.8101034164428711,0.0025544126983731985,8
2.0117111206054688,-78.379463195800781,-0.36935681104660034,0.24423466622829437,-39.240657806396484,-0.0069163702428340912,-0.0016674398211762309,-9.8107900619506836,0.004287203773856163,8
-2.0253050327301025,-78.378593444824219,-0.12121984362602234,-0.2441018670797348,-39.240741729736328,-0.0023863369133323431,0.0018203257350251079,-9.8107900619506836,0.0014791752910241485,8
-1.0735584497451782,-78.62371826171875,-0.10375867784023285,-0.11162876337766647,-39.285915374755859,-0.0012525060446932912,-0.00046178695629350841,-9.8101034164428711,0.00085117522394284606,8
-0.43775513768196106,-78.563674926757812,-0.079854920506477356,-0.00080655328929424286,-39.288986206054688,8.7654181697871536e-05,0.00068485381780192256,-9.8101034164428711,0.00014985444431658834,8
-0.25971469283103943,-78.563301086425781,-0.079747587442398071,-0.00057176564587280154,-39.288974761962891,8.9239139924757183e-05,0.00047489764983765781,-9.8101034164428711,0.00014831295993644744,8
-0.080724515020847321,-78.561149597167969,-0.079865120351314545,-0.00020806456450372934,-39.288967132568359,8.6787949840072542e-05,0.00015099342272151262,-9.8101034164428711,0.00015040145081002265,8
0.080482862889766693,-78.561149597167969,-0.079870074987411499,0.00013109610881656408,-39.288967132568359,8.6751009803265333e-05,-0.00015088952204678208,-9.8101034164428711,0.00015043397434055805,8
0.25945648550987244,-78.563301086425781,-0.079750373959541321,0.00049473019316792488,-39.288978576660156,8.9146997197531164e-05,-0.00047474048915319145,-9.8101034164428711,0.00014839415962342173,8
0.4374663233757019,-78.563690185546875,-0.079856768250465393,0.00072947109583765268,-39.288986206054688,8.7518426880706102e-05,-0.00068465998629108071,-9.8101034164428711,0.00014997427933849394,8
1.0735583305358887,-78.62371826171875,-0.10375881195068359,0.11162954568862915,-39.285919189453125,-0.0012525676283985376,0.0004615634388756007,-9.8101034164428711,0.00085116474656388164,8
2.0253047943115234,-78.37860107421875,-0.12122006714344025,0.24410176277160645,-39.240745544433594,-0.002386411651968956,-0.0018203257350251079,-9.8107900619506836,0.0014791613211855292,8
-2.0253047943115234,-78.378593444824219,0.12122377753257751,-0.24410180747509003,-39.240741729736328,0.0023887862917035818,0.0018203257350251079,-9.8107900619506836,-0.0014789098640903831,8
-1.0735584497451782,-78.62371826171875,0.10389889031648636,-0.11162871867418289,-39.285915374755859,0.0012981559848412871,-0.0004615634388756007,-9.8101034164428711,-0.00085185625357553363,8
-0.43765738606452942,-78.563682556152344,0.081625983119010925,-0.00080542406067252159,-39.288982391357422,0.00042462599230930209,0.00068332237424328923,-9.8101034164428711,-0.00015038442506920546,8
-0.25964054465293884,-78.563301086425781,0.081367805600166321,-0.00057088199537247419,-39.288974761962891,0.00042319146450608969,0.00047375561553053558,-9.8101034164428711,-0.00014899791858624667,8
-0.080701857805252075,-78.561141967773438,0.081312187016010284,-0.0002077160170301795,-39.288967132568359,0.00042556403786875308,0.00015056821575853974,-9.8101034164428711,-0.00015103053010534495,8
0.080460667610168457,-78.561134338378906,0.081315942108631134,0.00013086354010738432,-39.288967132568359,0.00042554692481644452,-0.00015056908887345344,-9.8101034164428711,-0.00015101481403689831,8
0.25938042998313904,-78.56329345703125,0.081367582082748413,0.00049394916277378798,-39.288974761962891,0.0004231070342939347,-0.00047369275125674903,-9.8101034164428711,-0.00014892195758875459,8
0.43736365437507629,-78.563690185546875,0.081623196601867676,0.00072844285750761628,-39.288986206054688,0.00042449674219824374,-0.00068321934668347239,-9.8101034164428711,-0.00015026742767076939,8
1.0735586881637573,-78.62371826171875,0.10389862954616547,0.11162953823804855,-39.285919189453125,0.0012980311876162887,0.0004615634388756007,-9.8101034164428711,-0.00085189467063173652,8
2.0253045558929443,-78.37860107421875,0.12122359871864319,0.24410173296928406,-39.240745544433594,0.0023887027055025101,-0.0018203257350251079,-9.8107900619506836,-0.0014789238339290023,8
-2.0117101669311523,-78.37945556640625,0.36936092376708984,-0.24423468112945557,-39.240653991699219,0.0069187791086733341,0.0016678868560120463,-9.8107900619506836,-0.0042869942262768745,8
-1.1173796653747559,-78.622428894042969,0.31719833612442017,-0.11179058998823166,-39.285858154296875,0.0038638252299278975,-0.00014238058065529913,-9.8101034164428711,-0.0025546432007104158,8
-0.44243434071540833,-78.570320129394531,0.24753963947296143,-0.00081204081652686,-39.288993835449219,0.00076878676190972328,0.00068916176678612828,-9.8101034164428711,-0.00045737423351965845,8
-0.25163033604621887,-78.557083129882812,0.25253203511238098,-0.00055505230557173491,-39.288978576660156,0.00077420298475772142,0.00045960242277942598,-9.8101034164428711,-0.00046167694381438196,8
-0.080626614391803741,-78.563270568847656,0.26029244065284729,-0.0002049056492978707,-39.288970947265625,0.00078886933624744415,0.00014802308578509837,-9.8101034164428711,-0.00047442966024391353,8
0.080387309193611145,-78.563270568847656,0.26029512286186218,0.000128181665786542,-39.288970947265625,0.00078884296817705035,-0.00014815798203926533,-9.8101034164428711,-0.00047440346679650247,8
0.25136399269104004,-78.557075500488281,0.25253072381019592,0.00047822954365983605,-39.288978576660156,0.00077410938683897257,-0.0004596548096742481,-9.8101034164428711,-0.00046158963232301176,8
0.44215109944343567,-78.570327758789062,0.24753513932228088,0.00073520222213119268,-39.288993835449219,0.00076867110328748822,-0.00068920542253181338,-9.8101034164428711,-0.00045726422104053199,8
1.1173793077468872,-78.622444152832031,0.31719732284545898,0.11179140955209732,-39.285861968994141,0.0038636184763163328,0.00014238058065529913,-9.8101034164428711,-0.0025545733515173197,8
2.0117106437683105,-78.379463195800781,0.36936086416244507,0.2442346066236496,-39.240657806396484,0.0069186929613351822,-0.0016674398211762309,-9.8107900619506836,-0.0042869942262768745,8
-1.9810372591018677,-78.375816345214844,0.63607645034790039,-0.24435849487781525,-39.240562438964844,0.010299794375896454,0.0014246999053284526,-9.8107900619506836,-0.0063945814035832882,8
-1.2189072370529175,-78.611289978027344,0.57115507125854492,-0.11217920482158661,-39.285713195800781,0.0068415463902056217,0.00061199063202366233,-9.8104467391967773,-0.0044500222429633141,8
-0.43286260962486267,-78.5963134765625,0.43388250470161438,-0.00082060252316296101,-39.289024353027344,0.0010407068766653538,0.00069733586860820651,-9.8101034164428711,-0.00070091913221403956,8
-0.24647985398769379,-78.57025146484375,0.44334328174591064,-0.00054906809236854315,-39.288993835449219,0.0010312249651178718,0.00045452787890098989,-9.8101034164428711,-0.00069148599868640304,8
-0.08077704906463623,-78.563644409179688,0.4383147656917572,-0.00020615663379430771,-39.288978576660156,0.0010233164066448808,0.00014915988140273839,-9.8101034164428711,-0.00068395276321098208,8
0.080541945993900299,-78.563644409179688,0.43831413984298706,0.00012951077951584011,-39.288978576660156,0.0010232847416773438,-0.00014938732783775777,-9.8101034164428711,-0.00068392133107408881,8
0.24623671174049377,-78.57025146484375,0.44333955645561218,0.00047238986007869244,-39.288993835449219,0.0010311371879652143,-0.00045473393402062356,-9.8101034164428711,-0.00069140217965468764,8
0.43262186646461487,-78.596321105957031,0.43387866020202637,0.00074393767863512039,-39.289024353027344,0.0010406078072264791,-0.00069756811717525125,-9.8101034164428711,-0.00070082483580335975,8
1.2189069986343384,-78.611297607421875,0.57115381956100464,0.11217999458312988,-39.285717010498047,0.0068413633853197098,-0.00061199063202366233,-9.8104467391967773,-0.0044499803334474564,8
1.9810376167297363,-78.375823974609375,0.63607710599899292,0.24435843527317047,-39.240566253662109,0.010299738496541977,-0.0014233588008210063,-9.8107900619506836,-0.0063945814035832882,8
-1.7055349349975586,-78.290351867675781,1.3317614793777466,-0.16864235699176788,-39.216529846191406,0.16842597723007202,0.00060126179596409202,-9.8104467391967773,-0.00011533498036442325,8
-1.3834669589996338,-78.379371643066406,1.3834621906280518,-0.16824808716773987,-39.216934204101562,0.16824714839458466,-0.00019580124353524297,-9.8097600936889648,0.00019580124353524297,8
-0.57110273838043213,-78.611297607421875,1.2189090251922607,-0.0068212896585464478,-39.285709381103516,0.11217852681875229,0.0044494355097413063,-9.8104467391967773,-0.00061243766685947776,8
-0.31713470816612244,-78.622428894042969,1.1173776388168335,-0.0038435272872447968,-39.285858154296875,0.11178971827030182,0.0025537980254739523,-9.8101034164428711,0.00014238058065529913,8
-0.10383415967226028,-78.62371826171875,1.0735574960708618,-0.0012783462880179286,-39.285919189453125,0.11162778735160828,0.00085130095249041915,-9.8101034164428711,0.00046201047371141613,8
0.10381164401769638,-78.62371826171875,1.0735578536987305,0.0012714213225990534,-39.285919189453125,0.11162780225276947,-0.00085121713345870376,-9.8101034164428711,0.00046178695629350841,8
0.31711345911026001,-78.622444152832031,1.1173790693283081,0.0038366261869668961,-39.285858154296875,0.11178977787494659,-0.0025538119953125715,-9.8101034164428711,0.00014238058065529913,8
0.57108527421951294,-78.611297607421875,1.2189117670059204,0.0068146991543471813,-39.285709381103516,0.11217869073152542,-0.0044495193287730217,-9.8104467391967773,-0.00061243766685947776,8
1.3834695816040039,-78.379371643066406,1.3834729194641113,0.16824892163276672,-39.216934204101562,0.1682496964931488,0.00019580124353524297,-9.8097600936889648,0.00019580124353524297,8
1.7055395841598511,-78.290351867675781,1.3317693471908569,0.16864317655563354,-39.216529846191406,0.16842849552631378,-0.00060126179596409202,-9.8104467391967773,-0.00011533498036442325,8
-1.620745062828064,-78.244583129882812,1.6207423210144043,-0.16860587894916534,-39.216426849365234,0.16860496997833252,0.00051319599151611328,-9.8107900619506836,-0.00051319599151611328,8
-1.3317650556564331,-78.290351867675781,1.7055343389511108,-0.16842691600322723,-39.216529846191406,0.16864149272441864,0.00011533498036442325,-9.8104467391967773,-0.00060126179596409202,8
-0.6360742449760437,-78.375823974609375,1.981035590171814,-0.010298666544258595,-39.240566253662109,0.24435847997665405,0.0063944975845515728,-9.8107900619506836,-0.0014246999053284526,8
-0.36935883760452271,-78.379463195800781,2.0117101669311523,-0.0069177160039544106,-39.240657806396484,0.24423493444919586,0.0042869942262768745,-9.8107900619506836,-0.0016678868560120463,8
-0.12122233957052231,-78.37860107421875,2.0253059864044189,-0.002387848449870944,-39.240745544433594,0.24410243332386017,0.0014789936831220984,-9.8107900619506836,-0.0018203257350251079,8
0.12122055143117905,-78.37860107421875,2.0253078937530518,0.0023871306329965591,-39.240745544433594,0.24410270154476166,-0.0014790355926379561,-9.8107900619506836,-0.0018203257350251079,8
0.36935660243034363,-78.379463195800781,2.0117166042327881,0.0069169583730399609,-39.240657806396484,0.24423578381538391,-0.0042870361357927322,-9.8107900619506836,-0.0016678868560120463,8
0.63607197999954224,-78.375816345214844,1.9810463190078735,0.010297888889908791,-39.240566253662109,0.24435994029045105,-0.0063944975845515728,-9.8107900619506836,-0.0014246999053284526,8
1.3317670822143555,-78.290351867675781,1.7055416107177734,0.1684277355670929,-39.216529846191406,0.16864395141601562,-0.00011533498036442325,-9.8104467391967773,-0.00060081476112827659,8
1.620747447013855,-78.244583129882812,1.6207499504089355,0.16860668361186981,-39.216426849365234,0.16860745847225189,-0.00051319599151611328,-9.8107900619506836,-0.00051319599151611328,8
-1.8274847269058228,-77.696556091308594,-1.8274809122085571,-0.23443187773227692,-39.089851379394531,-0.23443104326725006,-0.0011292098788544536,-9.8049535751342773,-0.0011292098788544536,8
-1.5292621850967407,-77.694648742675781,-1.9805601835250854,-0.2310219407081604,-39.089080810546875,-0.2384599894285202,-0.0027036664541810751,-9.8056402206420898,0.0010581314563751221,8
-0.63724309206008911,-77.687149047851562,-2.5934314727783203,-0.010218617506325245,-39.088218688964844,-0.42495858669281006,0.0055798324756324291,-9.8073568344116211,-0.0010058283805847168,8
-0.37140008807182312,-77.688560485839844,-2.6292321681976318,-0.0068375766277313232,-39.088367462158203,-0.42497327923774719,0.0037201258819550276,-9.8070135116577148,-0.0009262561216019094,8
-0.12234207987785339,-77.689064025878906,-2.6441352367401123,-0.0023783233482390642,-39.088436126708984,-0.42499458789825439,0.0012908478965982795,-9.8070135116577148,-0.00086098903557285666,8
0.12234104424715042,-77.689064025878906,-2.6441359519958496,0.0023780094925314188,-39.088436126708984,-0.42499461770057678,-0.0012908409116789699,-9.8070135116577148,-0.00086098903557285666,8
0.37139871716499329,-77.688560485839844,-2.6292333602905273,0.0068372427485883236,-39.088367462158203,-0.42497339844703674,-0.0037201258819550276,-9.8070135116577148,-0.0009262561216019094,8
0.63724035024642944,-77.687149047851562,-2.5934348106384277,0.010218200273811817,-39.088218688964844,-0.42495876550674438,-0.0055798045359551907,-9.8073568344116211,-0.0010058283805847168,8
1.529263973236084,-77.694648742675781,-1.9805694818496704,0.23102249205112457,-39.089080810546875,-0.2384619265794754,0.0027036664541810751,-9.8056402206420898,0.0010581314563751221,8
1.8274908065795898,-77.696556091308594,-1.8274910449981689,0.23443272709846497,-39.089851379394531,-0.23443277180194855,0.0011292098788544536,-9.8049535751342773,-0.0011292098788544536,8
-1.9805577993392944,-77.694648742675781,-1.5292608737945557,-0.23845942318439484,-39.089080810546875,-0.23102214932441711,0.0010581314563751221,-9.8056402206420898,-0.0027036664541810751,8
-1.646009087562561,-77.711334228515625,-1.6460030078887939,-0.23433823883533478,-39.090225219726562,-0.23433728516101837,-0.0012271105078980327,-9.8046102523803711,-0.0012275575427338481,8
-0.48650646209716797,-77.761238098144531,-1.3201844692230225,-4.4804077333537862e-05,-39.122089385986328,-0.15729315578937531,2.5157058189506643e-05,-9.8096456527709961,-0.00057980412384495139,8
-0.27765467762947083,-77.7698974609375,-1.2480859756469727,-2.9338092645048164e-05,-39.122123718261719,-0.15725548565387726,1.5976474969647825e-05,-9.8094167709350586,-0.00063478940865024924,8
-0.091599032282829285,-77.77581787109375,-1.2163460254669189,-1.0615935025271028e-05,-39.122146606445312,-0.15723212063312531,5.4290553634928074e-06,-9.8094167709350586,-0.00067010516067966819,8
0.09159272164106369,-77.77581787109375,-1.216346263885498,8.9914328782469966e-06,-39.122146606445312,-0.15723212063312531,-5.4170500334294047e-06,-9.8094167709350586,-0.00066965812584385276,8
0.27764829993247986,-77.7698974609375,-1.2480864524841309,2.7714042516890913e-05,-39.122123718261719,-0.15725551545619965,-1.5965124475769699e-05,-9.8094167709350586,-0.00063478940865024924,8
0.4864983856678009,-77.76123046875,-1.3201847076416016,4.3180578359169886e-05,-39.122089385986328,-0.15729320049285889,-2.5147017367999069e-05,-9.8096456527709961,-0.00057935708900913596,8
1.6460115909576416,-77.711334228515625,-1.6460115909576416,0.23433904349803925,-39.090225219726562,-0.23433905839920044,0.0012271105078980327,-9.8046102523803711,-0.0012271105078980327,8
1.9805672168731689,-77.694648742675781,-1.529265284538269,0.23846130073070526,-39.089080810546875,-0.23102298378944397,-0.0010581314563751221,-9.8056402206420898,-0.0027036664541810751,8
-2.5934169292449951,-77.687149047851562,-0.63723945617675781,-0.4249538779258728,-39.088218688964844,-0.010218096897006035,-0.0010058283805847168,-9.8073568344116211,0.0055797765962779522,8
-1.3201874494552612,-77.761238098144531,-0.48649647831916809,-0.15729330480098724,-39.122089385986328,-4.26572332798969e-05,-0.00057935708900913596,-9.8097600936889648,2.5117331460933201e-05,8
-0.37237614393234253,-78.006912231445312,-0.36018320918083191,4.2671406845329329e-05,-39.197078704833984,0.0010129361180588603,1.5167096535151359e-05,-9.8094167709350586,-8.0836463894229382e-05,8
-0.21656641364097595,-78.010986328125,-0.3691137433052063,4.7277790145017207e-05,-39.197071075439453,0.00098684383556246758,1.694694219622761e-05,-9.8094167709350586,-6.2155304476618767e-05,8
-0.071277476847171783,-78.012542724609375,-0.369129478931427,5.5973770940909162e-05,-39.197071075439453,0.00096152810147032142,1.6034864529501647e-05,-9.8094167709350586,-7.3989496740978211e-05,8
0.070874407887458801,-78.012550354003906,-0.36914175748825073,6.6557127865962684e-05,-39.197071075439453,0.00095552712446078658,8.0756581155583262e-06,-9.8094167709350586,-8.8762601080816239e-05,8
0.21612447500228882,-78.011016845703125,-0.36915478110313416,7.9881327110342681e-05,-39.197071075439453,0.00095069775125011802,-8.1538019003346562e-06,-9.8094167709350586,0.00030555526609532535,8
0.37177106738090515,-78.006950378417969,-0.36020669341087341,8.885655552148819e-05,-39.197078704833984,0.0010005414951592684,-2.0700243112514727e-05,-9.8094167709350586,-0.00011189840006409213,8
1.3201863765716553,-77.76123046875,-0.48649576306343079,0.15729349851608276,-39.122089385986328,-4.2598487198119983e-05,0.00057935708900913596,-9.8097600936889648,2.5103689040406607e-05,8
2.593430757522583,-77.687149047851562,-0.63724052906036377,0.42495816946029663,-39.088218688964844,-0.010218263603746891,0.0010058283805847168,-9.8073568344116211,0.0055797486566007137,8
-2.6292133331298828,-77.688560485839844,-0.37139847874641418,-0.42496851086616516,-39.088367462158203,-0.0068372050300240517,-0.0009262561216019094,-9.8070135116577148,0.0037201398517936468,8
-1.2480885982513428,-77.7698974609375,-0.27764603495597839,-0.15725560486316681,-39.122123718261719,-2.7196934752282687e-05,-0.00063478940865024924,-9.8094167709350586,1.5941277524689212e-05,8
-0.37239047884941101,-78.01092529296875,-0.20971405506134033,4.0959646867122501e-05,-39.197074890136719,0.0010337668936699629,1.2465678992157336e-05,-9.8094167709350586,-7.7008728112559766e-05,8
0.37179994583129883,-78.010963439941406,-0.20973868668079376,9.3235117674339563e-05,-39.197074890136719,0.0010237465612590313,-2.7490021238918416e-05,-9.8094167709350586,-9.5763236458878964e-05,8
1.2480894327163696,-77.769889831542969,-0.27764540910720825,0.15725579857826233,-39.122123718261719,-2.7144682462676428e-05,0.00063478940865024924,-9.8094167709350586,1.5932600945234299e-05,8
2.6292293071746826,-77.688560485839844,-0.37139934301376343,0.42497280240058899,-39.088367462158203,-0.0068373619578778744,0.0009262561216019094,-9.8070135116577148,0.003720153821632266,8
-2.6441178321838379,-77.689071655273438,-0.12234124541282654,-0.4249897301197052,-39.088436126708984,-0.0023780865594744682,-0.00086098903557285666,-9.8070135116577148,0.001290819956921041,8
-1.2163467407226562,-77.77581787109375,-0.091589689254760742,-0.15723218023777008,-39.122146606445312,-8.4823814177070744e-06,-0.00067010516067966819,-9.8094167709350586,5.4004608500690665e-06,8
-0.37239754199981689,-78.012519836425781,-0.065958574414253235,3.9017828385112807e-05,-39.197078704833984,0.0010609712917357683,9.5791610874584876e-06,-9.8094167709350586,-6.2204198911786079e-05,8
0.3718620240688324,-78.012557983398438,-0.065988741815090179,9.6682051662355661e-05,-39.197078704833984,0.0010541273513808846,-3.2409807317890227e-05,-9.8094167709350586,-6.7697837948799133e-05,8
1.2163494825363159,-77.77581787109375,-0.091589659452438354,0.1572323739528656,-39.122146606445312,-8.4382700151763856e-06,0.00067010516067966819,-9.8094167709350586,5.3977323659637477e-06,8
2.6441333293914795,-77.689064025878906,-0.1223415806889534,0.42499405145645142,-39.088436126708984,-0.0023781829513609409,0.00086098903557285666,-9.8070135116577148,0.0012908269418403506,8
-2.644118070602417,-77.689071655273438,0.1223413422703743,-0.42498975992202759,-39.088436126708984,0.0023781843483448029,-0.00086098903557285666,-9.8070135116577148,-0.0012908059870824218,8
-1.2163448333740234,-77.77581787109375,0.091600954532623291,-0.15723212063312531,-39.122146606445312,1.1115635061287321e-05,-0.00066965812584385276,-9.8094167709350586,-5.4372681006498169e-06,8
-0.37233850359916687,-78.0125732421875,0.075157441198825836,3.8283789763227105e-05,-39.19708251953125,0.0010766858467832208,9.5541681730537675e-06,-9.8094167709350586,-4.2464813304832205e-05,8
0.37181884050369263,-78.012603759765625,0.07511959969997406,9.4140305009204894e-05,-39.19708251953125,0.0010709911584854126,-2.8542997824843042e-05,-9.8094167709350586,-4.1556773794582114e-05,8
1.2163472175598145,-77.77581787109375,0.091600887477397919,0.15723232924938202,-39.122146606445312,1.1151319995406084e-05,0.00066965812584385276,-9.8094167709350586,-5.4335846471076366e-06,8
2.6441335678100586,-77.689064025878906,0.12234104424715042,0.42499405145645142,-39.088436126708984,0.0023781084455549717,0.00086098903557285666,-9.8070135116577148,-0.0012907990021631122,8
-2.6292145252227783,-77.688560485839844,0.37139898538589478,-0.42496857047080994,-39.088367462158203,0.0068373242393136024,-0.0009262561216019094,-9.8070135116577148,-0.0037201258819550276,8
-1.2480843067169189,-77.769889831542969,0.27765569090843201,-0.15725547075271606,-39.122123718261719,2.9828552214894444e-05,-0.00063523644348606467,-9.8094167709350586,-1.597609298187308e-05,8
-0.3722991943359375,-78.011039733886719,0.21977387368679047,3.8578600651817396e-05,-39.197086334228516,0.0010865115327760577,1.2652307304961141e-05,-9.8094167709350586,-2.6940831958199851e-05,8
0.37176573276519775,-78.011062622070312,0.21972498297691345,8.56102051329799e-05,-39.197086334228516,0.0010818472364917397,-1.585052814334631e-05,-9.8094167709350586,-2.4370381652261131e-05,8
1.2480851411819458,-77.769889831542969,0.27765530347824097,0.15725567936897278,-39.122123718261719,2.9856442779419012e-05,0.00063478940865024924,-9.8094167709350586,-1.596616129972972e-05,8
2.6292297840118408,-77.688560485839844,0.37139898538589478,0.42497283220291138,-39.088367462158203,0.0068373107351362705,0.0009262561216019094,-9.8070135116577148,-0.0037201258819550276,8
-2.5934178829193115,-77.687149047851562,0.63724011182785034,-0.42495393753051758,-39.088218688964844,0.010218236595392227,-0.0010058283805847168,-9.8073568344116211,-0.0055797765962779522,8
-1.3201825618743896,-77.76123046875,0.4865058958530426,-0.15729308128356934,-39.122089385986328,4.5286946260603145e-05,-0.00057980412384495139,-9.8097600936889648,-2.5149309294647537e-05,8
-0.36343735456466675,-78.006996154785156,0.37520894408226013,3.9250946429092437e-05,-39.197097778320312,0.0010909086558967829,1.5792902559041977e-05,-9.8094167709350586,-1.9149154468323104e-05,8
-0.2132752388715744,-78.010978698730469,0.37519732117652893,4.2311901779612526e-05,-39.197086334228516,0.0010917652398347855,1.8523567632655613e-05,-9.8094167709350586,-1.5677651390433311e-05,8
-0.070194154977798462,-78.0125732421875,0.37520009279251099,4.8694211727706715e-05,-39.197090148925781,0.0010922338115051389,2.0334953660494648e-05,-9.8094167709350586,-1.2178205906820949e-05,8
0.069849349558353424,-78.012588500976562,0.3751908540725708,5.7503959396854043e-05,-39.197090148925781,0.0010913414880633354,1.6431476979050785e-05,-9.8094167709350586,-1.1574010386539157e-05,8
0.21288958191871643,-78.011001586914062,0.37516790628433228,6.9595655077137053e-05,-39.197090148925781,0.0010890288976952434,5.0710509640339296e-06,-9.8094167709350586,-1.3875541299057659e-05,8
0.36301425099372864,-78.00701904296875,0.37516492605209351,7.7993812737986445e-05,-39.197097778320312,0.0010870401747524738,-4.2793544707819819e-06,-9.8094167709350586,-1.6641570255160332e-05,8
1.3201833963394165,-77.761222839355469,0.48650562763214111,0.15729333460330963,-39.122089385986328,4.5309025153983384e-05,0.00057980412384495139,-9.8097600936889648,-2.5134248062386177e-05,8
2.593430757522583,-77.687149047851562,0.63724076747894287,0.42495822906494141,-39.088218688964844,0.010218256153166294,0.0010058283805847168,-9.8073568344116211,-0.0055797486566007137,8
-1.9805575609207153,-77.69464111328125,1.5292601585388184,-0.23845914006233215,-39.089076995849609,0.23102174699306488,0.0010581314563751221,-9.8056402206420898,0.0027036664541810751,8
-1.6460062265396118,-77.711318969726562,1.6460021734237671,-0.23433803021907806,-39.090221405029297,0.23433688282966614,-0.0012271105078980327,-9.8046102523803711,0.0012271105078980327,8
-0.48650047183036804,-77.761222839355469,1.3201776742935181,-4.415648800204508e-05,-39.122089385986328,0.15729175508022308,2.5070619813050143e-05,-9.8097600936889648,0.00057935708900913596,8
-0.27764979004859924,-77.769882202148438,1.2480803728103638,-2.8723299692501314e-05,-39.122123718261719,0.15725407004356384,1.5918849385343492e-05,-9.8094167709350586,0.00063434237381443381,8
-0.091595381498336792,-77.77581787109375,1.2163419723510742,-1.0043142538052052e-05,-39.122146606445312,0.1572306752204895,5.4069819270807784e-06,-9.8094167709350586,0.00067010516067966819,8
0.091592788696289062,-77.77581787109375,1.2163420915603638,9.5191026048269123e-06,-39.122146606445312,0.15723066031932831,-5.4010884014132898e-06,-9.8094167709350586,0.00066965812584385276,8
0.27764737606048584,-77.769889831542969,1.2480803728103638,2.8199521693750285e-05,-39.122123718261719,0.15725404024124146,-1.591301042935811e-05,-9.8094167709350586,0.00063478940865024924,8
0.48649844527244568,-77.76123046875,1.3201791048049927,4.3632840970531106e-05,-39.122089385986328,0.15729169547557831,-2.5065162844839506e-05,-9.8097600936889648,0.00057935708900913596,8
1.6460096836090088,-77.711326599121094,1.6460082530975342,0.23433886468410492,-39.090225219726562,0.23433816432952881,0.0012275575427338481,-9.8046102523803711,0.0012271105078980327,8
1.9805663824081421,-77.694648742675781,1.5292619466781616,0.23846116662025452,-39.089080810546875,0.23102205991744995,-0.0010581314563751221,-9.8056402206420898,0.0027036664541810751,8
-1.8274835348129272,-77.696556091308594,1.8274794816970825,-0.23443165421485901,-39.089847564697266,0.23443058133125305,-0.0011292098788544536,-9.8049535751342773,0.0011292098788544536,8
-1.5292608737945557,-77.69464111328125,1.9805582761764526,-0.23102174699306488,-39.089076995849609,0.23845937848091125,-0.0027036664541810751,-9.8056402206420898,-0.0010581314563751221,8
-0.63723993301391602,-77.687149047851562,2.5934238433837891,-0.010218235664069653,-39.088218688964844,0.424955815076828,0.0055797486566007137,-9.8073568344116211,0.0010058283805847168,8
-0.37139847874641418,-77.688560485839844,2.6292214393615723,-0.0068373391404747963,-39.088367462158203,0.42497047781944275,0.0037201119121164083,-9.8070135116577148,0.0009262561216019094,8
-0.1223410964012146,-77.689064025878906,2.6441230773925781,-0.0023782022763043642,-39.088436126708984,0.42499175667762756,0.0012907850323244929,-9.8070135116577148,0.00086098903557285666,8
0.12234053015708923,-77.689064025878906,2.6441226005554199,0.0023780020419508219,-39.088436126708984,0.42499181628227234,-0.0012907990021631122,-9.8070135116577148,0.00086098903557285666,8
0.37139761447906494,-77.688560485839844,2.6292226314544678,0.0068371216766536236,-39.088367462158203,0.42497062683105469,-0.0037201258819550276,-9.8070135116577148,0.0009262561216019094,8
0.63723903894424438,-77.687149047851562,2.5934264659881592,0.010218010284006596,-39.088218688964844,0.42495602369308472,-0.0055797486566007137,-9.8073568344116211,0.0010058283805847168,8
1.5292637348175049,-77.694648742675781,1.9805643558502197,0.23102262616157532,-39.089080810546875,0.23846057057380676,0.0027036664541810751,-9.8056402206420898,-0.0010581314563751221,8
1.8274869918823242,-77.696556091308594,1.8274856805801392,0.23443253338336945,-39.089851379394531,0.23443184792995453,0.0011292098788544536,-9.8049535751342773,0.0011292098788544536,8
-1.8640381097793579,-77.404312133789062,-1.8640342950820923,-0.23525644838809967,-39.085788726806641,-0.23525547981262207,-0.00040635463665239513,-9.8083868026733398,-0.00040680167148821056,8
-1.5542241334915161,-77.404678344726562,-2.025287389755249,-0.23135507106781006,-39.085300445556641,-0.2396913468837738,-0.0022816655691713095,-9.8087301254272461,0.001952648046426475,8
-0.64029228687286377,-77.408058166503906,-2.648444652557373,-0.010440039448440075,-39.085964202880859,-0.42565864324569702,0.0056693512015044689,-9.8090734481811523,-0.00039786097477190197,8
-0.37271341681480408,-77.408164978027344,-2.6863744258880615,-0.0069140074774622917,-39.085960388183594,-0.42572826147079468,0.0037346405442804098,-9.8090734481811523,-0.00026822090148925781,8
-0.12275421619415283,-77.407859802246094,-2.7024710178375244,-0.0023949525784701109,-39.085945129394531,-0.4257790744304657,0.0012895906111225486,-9.8090734481811523,-0.00017702578043099493,8
0.12275336682796478,-77.407859802246094,-2.7024712562561035,0.0023946547880768776,-39.085945129394531,-0.42577910423278809,-0.0012895975960418582,-9.8090734481811523,-0.00017702578043099493,8
0.37271216511726379,-77.408164978027344,-2.6863753795623779,0.0069136819802224636,-39.085960388183594,-0.42572838068008423,-0.0037346684839576483,-9.8090734481811523,-0.00026822090148925781,8
0.64028972387313843,-77.408058166503906,-2.6484463214874268,0.010439644567668438,-39.085964202880859,-0.42565882205963135,-0.0056693512015044689,-9.8090734481811523,-0.00039696690510027111,8
1.5542260408401489,-77.404670715332031,-2.0252952575683594,0.23135566711425781,-39.085300445556641,-0.23969335854053497,0.0022816655691713095,-9.8087301254272461,0.001952648046426475,8
1.8640413284301758,-77.404312133789062,-1.8640406131744385,0.23525726795196533,-39.085788726806641,-0.23525719344615936,0.00040680167148821056,-9.8083868026733398,-0.00040680167148821056,8
-2.0252833366394043,-77.404678344726562,-1.5542248487472534,-0.23969067633152008,-39.085300445556641,-0.23135541379451752,0.0019522010115906596,-9.8087301254272461,-0.0022816655691713095,8
-1.6807223558425903,-77.413665771484375,-1.6807177066802979,-0.23516939580440521,-39.086151123046875,-0.23516835272312164,-0.0004939734935760498,-9.8080434799194336,-0.00049442052841186523,8
-0.48622545599937439,-77.524063110351562,-1.3354333639144897,-5.1435974455671385e-05,-39.121826171875,-0.15758170187473297,3.6757915950147435e-05,-9.8099889755249023,-0.0001841783378040418,8
-0.27907729148864746,-77.531654357910156,-1.2695293426513672,-3.3415908546885476e-05,-39.121871948242188,-0.15752694010734558,2.3024038455332629e-05,-9.8097600936889648,-0.00026419758796691895,8
-0.09169798344373703,-77.533638000488281,-1.2399173974990845,-1.1948905921599362e-05,-39.121902465820312,-0.15750566124916077,7.7881031756987795e-06,-9.8097600936889648,-0.00029638406704179943,8
0.091692321002483368,-77.533638000488281,-1.2399172782897949,1.0329362339689396e-05,-39.121902465820312,-0.15750566124916077,-7.7827280620113015e-06,-9.8097600936889648,-0.00029638406704179943,8
0.27907112240791321,-77.531654357910156,-1.2695305347442627,3.1796731491340324e-05,-39.121871948242188,-0.15752696990966797,-2.3019127183943056e-05,-9.8097600936889648,-0.00026419758796691895,8
0.48621800541877747,-77.524063110351562,-1.3354336023330688,4.9817426770459861e-05,-39.121826171875,-0.15758173167705536,-3.6753986933035776e-05,-9.8099889755249023,-0.0001841783378040418,8
1.6807248592376709,-77.413665771484375,-1.6807239055633545,0.23517020046710968,-39.086151123046875,-0.23517011106014252,0.0004939734935760498,-9.8080434799194336,-0.00049442052841186523,8
2.0252914428710938,-77.404670715332031,-1.5542278289794922,0.23969259858131409,-39.085300445556641,-0.23135624825954437,-0.001952648046426475,-9.8087301254272461,-0.0022816655691713095,8
-2.6484272480010986,-77.408058166503906,-0.64028894901275635,-0.42565396428108215,-39.085964202880859,-0.010439535602927208,-0.00039786097477190197,-9.8090734481811523,0.0056693232618272305,8
-1.3354374170303345,-77.524063110351562,-0.48621591925621033,-0.1575818806886673,-39.121826171875,-4.9299938837066293e-05,-0.0001841783378040418,-9.8099889755249023,3.6733359593199566e-05,8
-0.37217256426811218,-77.818710327148438,-0.35856544971466064,4.3540996557567269e-05,-39.196853637695312,0.00099738407880067825,1.3885800399293657e-05,-9.8097600936889648,2.7625353595794877e-06,8
-0.20610731840133667,-77.8265380859375,-0.36899113655090332,4.8623391194269061e-05,-39.196849822998047,0.00094608019571751356,1.5826299204491079e-05,-9.8097600936889648,0.00029143350548110902,8
-0.065840601921081543,-77.816932678222656,-0.3690025806427002,5.6783468608045951e-05,-39.196826934814453,0.00091362209059298038,1.4222604477254208e-05,-9.8097600936889648,0.00034131281427107751,8
0.065484769642353058,-77.816947937011719,-0.36901453137397766,6.5647400333546102e-05,-39.196826934814453,0.00091442128177732229,6.7461219259712379e-06,-9.8097600936889648,0.0002890359319280833,8
0.20576341450214386,-77.826553344726562,-0.36902529001235962,7.8121520346030593e-05,-39.196849822998047,0.00094699452165514231,-9.6435533123440109e-06,-9.8097600936889648,0.00016716482059564441,8
0.37195506691932678,-77.8187255859375,-0.35858640074729919,8.8370521552860737e-05,-39.196853637695312,0.00099194759968668222,-2.6180785425822251e-05,-9.8097600936889648,-2.0015284462715499e-05,8
1.335435152053833,-77.524063110351562,-0.48621520400047302,0.15758201479911804,-39.121826171875,-4.9239315558224916e-05,0.0001841783378040418,-9.8099889755249023,3.6717097827931866e-05,8
2.6484434604644775,-77.408058166503906,-0.64028972387313843,0.42565822601318359,-39.085964202880859,-0.010439695790410042,0.00039696690510027111,-9.8090734481811523,0.005669295322149992,8
-2.6863551139831543,-77.408164978027344,-0.37271222472190857,-0.42572355270385742,-39.085960388183594,-0.0069137085229158401,-0.00026822090148925781,-9.8090734481811523,0.0037346405442804098,8
-1.2695325613021851,-77.531654357910156,-0.27906984090805054,-0.15752707421779633,-39.121871948242188,-3.1284736905945465e-05,-0.00026419758796691895,-9.8097600936889648,2.3002756279311143e-05,8
-0.37217691540718079,-77.826568603515625,-0.19974511861801147,4.1701041482156143e-05,-39.196853637695312,0.0010288228513672948,1.1023074875993188e-05,-9.8097600936889648,-3.7128334952285513e-05,8
0.37195295095443726,-77.82659912109375,-0.19976626336574554,9.3347007350530475e-05,-39.196853637695312,0.0010233897482976317,-3.4855183912441134e-05,-9.8097600936889648,-4.9254154873779044e-05,8
1.2695330381393433,-77.531654357910156,-0.27906936407089233,0.15752722322940826,-39.121871948242188,-3.1231400498654693e-05,0.00026419758796691895,-9.8097600936889648,2.2992278900346719e-05,8
2.686373233795166,-77.408164978027344,-0.37271246314048767,0.42572781443595886,-39.085960388183594,-0.0069138039834797382,0.00026822090148925781,-9.8090734481811523,0.0037346405442804098,8
-2.702455997467041,-77.407844543457031,-0.12275378406047821,-0.42577442526817322,-39.085941314697266,-0.0023947581648826599,-0.00017791985010262579,-9.8090734481811523,0.0012896045809611678,8
-1.2399182319641113,-77.533638000488281,-0.091690637171268463,-0.15750572085380554,-39.121902465820312,-9.8253731266595423e-06,-0.00029638406704179943,-9.8097600936889648,7.7732602221658453e-06,8
-0.37217512726783752,-77.816970825195312,-0.060847807675600052,4.016724051325582e-05,-39.196834564208984,0.0010602790862321854,8.3688064478337765e-06,-9.8097600936889648,-5.7339198974659666e-05,8
0.37200459837913513,-77.8170166015625,-0.0608794204890728,9.6469877462368459e-05,-39.196834564208984,0.0010548639111220837,-4.1528179281158373e-05,-9.8097600936889648,-5.7066787121584639e-05,8
1.2399189472198486,-77.533638000488281,-0.091690421104431152,0.15750588476657867,-39.121902465820312,-9.7809661383507773e-06,0.00029638406704179943,-9.8097600936889648,7.7699587563984096e-06,8
2.7024703025817871,-77.407844543457031,-0.12275416404008865,0.42577868700027466,-39.085941314697266,-0.0023948098532855511,0.00017791985010262579,-9.8090734481811523,0.0012895906111225486,8
-2.7024564743041992,-77.407844543457031,0.12275399267673492,-0.42577442526817322,-39.085941314697266,0.0023948659654706717,-0.00017702578043099493,-9.8090734481811523,-0.0012896045809611678,8
-1.2399163246154785,-77.533638000488281,0.09170011430978775,-0.15750564634799957,-39.121902465820312,1.2443501873349305e-05,-0.00029638406704179943,-9.8097600936889648,-7.789330993546173e-06,8
-0.37213528156280518,-77.816993713378906,0.069641642272472382,3.9611775719095021e-05,-39.19683837890625,0.0010753108654171228,8.2619590102694929e-06,-9.8097600936889648,-4.4266922486713156e-05,8
0.37200775742530823,-77.817039489746094,0.069609992206096649,9.4521332357544452e-05,-39.19683837890625,0.0010700963903218508,-3.8517679058713838e-05,-9.8097600936889648,-4.1266899643233046e-05,8
1.2399183511734009,-77.533638000488281,0.091699875891208649,0.1575058251619339,-39.121902465820312,1.2477901691454463e-05,0.00029638406704179943,-9.8097600936889648,-7.7841741585871205e-06,8
2.7024707794189453,-77.407844543457031,0.12275311350822449,0.42577868700027466,-39.085941314697266,0.0023947255685925484,0.00017791985010262579,-9.8090734481811523,-0.0012895626714453101,8
-2.6863584518432617,-77.408164978027344,0.37271249294281006,-0.4257236123085022,-39.085960388183594,0.0069138188846409321,-0.00026822090148925781,-9.8090734481811523,-0.0037346405442804098,8
-1.2695260047912598,-77.531654357910156,0.27907902002334595,-0.15752688050270081,-39.121871948242188,3.3901222195709124e-05,-0.00026419758796691895,-9.8097600936889648,-2.3016726117930375e-05,8
-0.37211576104164124,-77.826614379882812,0.20937180519104004,3.9748840208631009e-05,-39.196865081787109,0.0010850396938621998,1.0929651580227073e-05,-9.8097600936889648,-2.7590429453994147e-05,8
0.37198582291603088,-77.826637268066406,0.20932748913764954,8.6956933955661952e-05,-39.196865081787109,0.0010805401252582669,-2.4968028810690157e-05,-9.8097600936889648,-2.4600883989478461e-05,8
1.2695276737213135,-77.531654357910156,0.27907896041870117,0.15752704441547394,-39.121871948242188,3.392852158867754e-05,0.00026419758796691895,-9.8097600936889648,-2.3004829927231185e-05,8
2.6863746643066406,-77.408164978027344,0.37271234393119812,0.42572787404060364,-39.085960388183594,0.0069137699902057648,0.00026822090148925781,-9.8090734481811523,-0.0037346405442804098,8
-2.648428201675415,-77.408058166503906,0.64028972387313843,-0.42565402388572693,-39.085964202880859,0.010439694859087467,-0.00039696690510027111,-9.8090734481811523,-0.0056693232618272305,8
-1.3354300260543823,-77.524063110351562,0.48622530698776245,-0.157581627368927,-39.121826171875,5.1913328206865117e-05,-0.00018507240747567266,-9.8099889755249023,-3.6742963857250288e-05,8
-0.36174589395523071,-77.818778991699219,0.37524858117103577,4.0578826883574948e-05,-39.196868896484375,0.0010897492757067084,1.4157120858726557e-05,-9.8097600936889648,-1.6711419448256493e-05,8
-0.20326025784015656,-77.82666015625,0.37523332238197327,4.4018524931743741e-05,-39.196868896484375,0.0010905724484473467,1.706393959466368e-05,-9.8097600936889648,-1.2520466952992138e-05,8
-0.064955294132232666,-77.817085266113281,0.37522140145301819,5.0281152653042227e-05,-39.196846008300781,0.0010906620882451534,1.7826603652792983e-05,-9.8097600936889648,-8.7311482275254093e-06,8
0.064667969942092896,-77.817092895507812,0.3752114474773407,5.7771059800870717e-05,-39.196846008300781,0.0010899270419031382,1.3638054042530712e-05,-9.8097600936889648,-8.2247424870729446e-06,8
0.20298416912555695,-77.826667785644531,0.37520316243171692,6.899258733028546e-05,-39.196868896484375,0.0010881409980356693,1.9265280570834875e-06,-9.8097600936889648,-1.08545636976487e-05,8
0.36149141192436218,-77.818794250488281,0.37519460916519165,7.8524244599975646e-05,-39.196868896484375,0.0010860840557143092,-1.056337987392908e-05,-9.8097600936889648,-1.4217802345228847e-05,8
1.3354308605194092,-77.524063110351562,0.48622521758079529,0.15758180618286133,-39.121826171875,5.193509059608914e-05,0.00018507240747567266,-9.8099889755249023,-3.6725828977068886e-05,8
2.6484441757202148,-77.408058166503906,0.6402900218963623,0.42565831542015076,-39.085964202880859,0.010439706966280937,0.00039696690510027111,-9.8090734481811523,-0.0056693232618272305,8
-2.025280237197876,-77.404670715332031,1.5542232990264893,-0.23969019949436188,-39.085300445556641,0.23135504126548767,0.0019522010115906596,-9.8087301254272461,0.0022816655691713095,8
-1.6807208061218262,-77.413658142089844,1.6807147264480591,-0.23516921699047089,-39.086147308349609,0.23516784608364105,-0.0004939734935760498,-9.8080434799194336,0.0004939734935760498,8
-0.48622015118598938,-77.524055480957031,1.3354274034500122,-5.0788421503966674e-05,-39.121826171875,0.15758025646209717,3.6672023270512e-05,-9.8099889755249023,0.0001841783378040418,8
-0.27907237410545349,-77.531654357910156,1.2695244550704956,-3.2800569897517562e-05,-39.121871948242188,0.1575254499912262,2.2965430616750382e-05,-9.8097600936889648,0.00026419758796691895,8
-0.091695278882980347,-77.533638000488281,1.2399138212203979,-1.1375780559319537e-05,-39.121902465820312,0.15750415623188019,7.7660024544456974e-06,-9.8097600936889648,0.00029638406704179943,8
0.091693170368671417,-77.533638000488281,1.2399153709411621,1.0854074389499146e-05,-39.121902465820312,0.15750415623188019,-7.7636013884330168e-06,-9.8097600936889648,0.00029638406704179943,8
0.27907067537307739,-77.531654357910156,1.2695239782333374,3.2279156584991142e-05,-39.121871948242188,0.15752542018890381,-2.2963466108194552e-05,-9.8097600936889648,0.00026419758796691895,8
0.48621737957000732,-77.524063110351562,1.3354266881942749,5.0267019105376676e-05,-39.121826171875,0.15758019685745239,-3.6669840483227745e-05,-9.8099889755249023,0.0001841783378040418,8
1.680724024772644,-77.413665771484375,1.6807209253311157,0.23517003655433655,-39.086151123046875,0.2351691871881485,0.0004939734935760498,-9.8080434799194336,0.0004939734935760498,8
2.0252914428710938,-77.404670715332031,1.5542253255844116,0.23969249427318573,-39.085300445556641,0.23135535418987274,-0.001952648046426475,-9.8087301254272461,0.0022816655691713095,8
-1.8640364408493042,-77.404312133789062,1.8640322685241699,-0.23525622487068176,-39.085788726806641,0.2352549135684967,-0.00040680167148821056,-9.8083868026733398,0.00040680167148821056,8
-1.5542218685150146,-77.404670715332031,2.0252835750579834,-0.23135483264923096,-39.085300445556641,0.23969064652919769,-0.0022816655691713095,-9.8087301254272461,-0.001952648046426475,8
-0.64028960466384888,-77.408058166503906,2.6484341621398926,-0.010439682751893997,-39.085964202880859,0.42565584182739258,0.0056692673824727535,-9.8090734481811523,0.00039786097477190197,8
-0.37271195650100708,-77.408164978027344,2.6863634586334229,-0.0069137974642217159,-39.085960388183594,0.42572548985481262,0.0037346126046031713,-9.8090734481811523,0.00026822090148925781,8
-0.12275350838899612,-77.407844543457031,2.7024605274200439,-0.002394823357462883,-39.085941314697266,0.42577639222145081,0.0012895626714453101,-9.8090734481811523,0.00017791985010262579,8
0.12275255471467972,-77.407844543457031,2.7024610042572021,0.0023946051951497793,-39.085941314697266,0.42577645182609558,-0.0012895556865260005,-9.8090734481811523,0.00017791985010262579,8
0.37271124124526978,-77.408164978027344,2.6863656044006348,0.0069135795347392559,-39.085960388183594,0.42572563886642456,-0.0037345986347645521,-9.8090734481811523,0.00026822090148925781,8
0.64028835296630859,-77.408058166503906,2.6484372615814209,0.010439447127282619,-39.085964202880859,0.42565611004829407,-0.0056692673824727535,-9.8090734481811523,0.00039696690510027111,8
1.554226279258728,-77.404670715332031,2.0252895355224609,0.23135580122470856,-39.085300445556641,0.23969201743602753,0.0022816655691713095,-9.8087301254272461,-0.001952648046426475,8
1.8640402555465698,-77.404312133789062,1.8640373945236206,0.23525711894035339,-39.085788726806641,0.23525626957416534,0.00040680167148821056,-9.8083868026733398,0.00040680167148821056,8
-1.8764287233352661,-77.122428894042969,-1.8764247894287109,-0.23612295091152191,-39.08148193359375,-0.23612199723720551,0.00030890104244463146,-9.8118200302124023,0.00030845400760881603,8
-1.5660101175308228,-77.124671936035156,-2.0380384922027588,-0.23212014138698578,-39.081405639648438,-0.2404610812664032,-0.0016620754031464458,-9.8118200302124023,0.002567320829257369,8
-0.641335129737854,-77.14031982421875,-2.6649281978607178,-0.010481338948011398,-39.083705902099609,-0.42635396122932434,0.0056815329007804394,-9.8111333847045898,0.00021100042795296758,8
-0.3731008768081665,-77.140800476074219,-2.703463077545166,-0.006921662949025631,-39.083667755126953,-0.42643687129020691,0.0037324891891330481,-9.8111333847045898,0.0003486871428322047,8
-0.12279996275901794,-77.140541076660156,-2.7198498249053955,-0.0023890587035566568,-39.083644866943359,-0.42649096250534058,0.0012847570469602942,-9.8111333847045898,0.00043988224933855236,8
0.12279924750328064,-77.140541076660156,-2.7198500633239746,0.0023887688294053078,-39.083644866943359,-0.42649099230766296,-0.0012847849866375327,-9.8111333847045898,0.00043988224933855236,8
0.37309974431991577,-77.140800476074219,-2.7034647464752197,0.0069213365204632282,-39.083667755126953,-0.42643696069717407,-0.0037324891891330481,-9.8111333847045898,0.00034958121250383556,8
0.64133369922637939,-77.14031982421875,-2.6649298667907715,0.010480980388820171,-39.083705902099609,-0.42635411024093628,-0.0056815329007804394,-9.8111333847045898,0.00021100042795296758,8
1.566011905670166,-77.124656677246094,-2.038043737411499,0.2321208268404007,-39.081405639648438,-0.24046309292316437,0.0016620754031464458,-9.8118200302124023,0.002567320829257369,8
1.8764313459396362,-77.122421264648438,-1.876430869102478,0.23612384498119354,-39.08148193359375,-0.23612374067306519,-0.00030890104244463146,-9.8118200302124023,0.00030845400760881603,8
-2.0380334854125977,-77.124671936035156,-1.5660117864608765,-0.24046041071414948,-39.081405639648438,-0.23212051391601562,0.002567320829257369,-9.8118200302124023,-0.0016620754031464458,8
-1.6989836692810059,-77.131584167480469,-1.6989774703979492,-0.23605607450008392,-39.081771850585938,-0.23605503141880035,0.00024855136871337891,-9.8114767074584961,0.00024810433387756348,8
-0.49369502067565918,-77.300300598144531,-1.3886641263961792,-6.2068989791441709e-05,-39.121494293212891,-0.15794755518436432,5.3709441999671981e-05,-9.8104467391967773,0.00031694766948930919,8
-0.28104844689369202,-77.309791564941406,-1.3160135746002197,-3.9352238673018292e-05,-39.121574401855469,-0.15785495936870575,3.2774005376268178e-05,-9.8102178573608398,0.00018507240747567266,8
-0.09147268533706665,-77.312545776367188,-1.2815513610839844,-1.3616441719932482e-05,-39.121604919433594,-0.15781477093696594,1.0758521057141479e-05,-9.8101034164428711,0.0001265108585357666,8
0.091467231512069702,-77.312545776367188,-1.281552791595459,1.2002428775303997e-05,-39.121604919433594,-0.15781477093696594,-1.0760676559584681e-05,-9.8101034164428711,0.0001265108585357666,8
0.28104254603385925,-77.309791564941406,-1.3160136938095093,3.7738936953246593e-05,-39.121574401855469,-0.15785498917102814,-3.2776952139101923e-05,-9.8102178573608398,0.00018507240747567266,8
0.4936889111995697,-77.300300598144531,-1.3886655569076538,6.0457568906713277e-05,-39.121494293212891,-0.1579475998878479,-5.3714898967882618e-05,-9.8104467391967773,0.00031694766948930919,8
1.6989855766296387,-77.131584167480469,-1.6989825963973999,0.23605689406394958,-39.081771850585938,-0.23605674505233765,-0.00024855136871337891,-9.8114767074584961,0.00024855136871337891,8
2.0380408763885498,-77.124656677246094,-1.5660146474838257,0.24046230316162109,-39.081405639648438,-0.23212148249149323,-0.002567320829257369,-9.8118200302124023,-0.0016620754031464458,8
-2.6649129390716553,-77.14031982421875,-0.64133161306381226,-0.42634931206703186,-39.083705902099609,-0.010480831377208233,0.00021100042795296758,-9.8111333847045898,0.0056815049611032009,8
-1.3886686563491821,-77.30029296875,-0.49368655681610107,-0.15794779360294342,-39.121490478515625,-5.9946713008685037e-05,0.00031739470432512462,-9.8104467391967773,5.3705403843196109e-05,8
-0.38008636236190796,-77.624855041503906,-0.37470179796218872,4.483815428102389e-05,-39.196441650390625,0.0010015412699431181,1.2378913197608199e-05,-9.8101034164428711,1.130159853346413e-05,8
-0.2074931263923645,-77.634963989257812,-0.36885356903076172,4.9652615416562185e-05,-39.196456909179688,0.00094445800641551614,1.4652395293524023e-05,-9.8102178573608398,0.00041030286229215562,8
-0.065681710839271545,-77.632827758789062,-0.36886721849441528,5.6917564506875351e-05,-39.196437835693359,0.00091975927352905273,1.3602256331068929e-05,-9.8102178573608398,0.0004097266064491123,8
0.065410219132900238,-77.632827758789062,-0.36887940764427185,6.4704472606536001e-05,-39.196437835693359,0.00092003081226721406,7.2058169280353468e-06,-9.8102178573608398,0.00040473064291290939,8
0.20729696750640869,-77.634963989257812,-0.36889117956161499,7.6013486250303686e-05,-39.196456909179688,0.00094432837795466185,-8.1164762377738953e-06,-9.8102178573608398,0.00039569215732626617,8
0.37995943427085876,-77.624855041503906,-0.37472805380821228,8.5883650172036141e-05,-39.196441650390625,0.00099897198379039764,-2.394233706581872e-05,-9.8101034164428711,1.1046648978663143e-05,8
1.3886675834655762,-77.30029296875,-0.49368607997894287,0.15794792771339417,-39.121490478515625,-5.9884099755436182e-05,-0.00031694766948930919,-9.8104467391967773,5.3687177569372579e-05,8
2.6649274826049805,-77.14031982421875,-0.64133334159851074,0.4263535737991333,-39.083705902099609,-0.010480994358658791,-0.00021100042795296758,-9.8111333847045898,0.0056815049611032009,8
-2.7034444808959961,-77.140792846679688,-0.37309956550598145,-0.42643222212791443,-39.083663940429688,-0.0069213300012052059,0.00034958121250383556,-9.8111333847045898,0.0037325031589716673,8
-1.3160167932510376,-77.309776306152344,-0.28104150295257568,-0.15785515308380127,-39.121574401855469,-3.7233956390991807e-05,0.00018507240747567266,-9.8102178573608398,3.2770840334706008e-05,8
-0.37195608019828796,-77.635055541992188,-0.20262928307056427,4.3501913751242682e-05,-39.196460723876953,0.0010318969143554568,9.9435774245648645e-06,-9.8101034164428711,-2.3511236577178352e-05,8
0.37218829989433289,-77.635055541992188,-0.20266956090927124,9.0364308562129736e-05,-39.196460723876953,0.0010283095762133598,-3.4729891922324896e-05,-9.8101034164428711,-2.2019956304575317e-05,8
1.3160165548324585,-77.309776306152344,-0.28104087710380554,0.15785528719425201,-39.121574401855469,-3.7179146602284163e-05,-0.00018507240747567266,-9.8102178573608398,3.2759162422735244e-05,8
2.7034604549407959,-77.140792846679688,-0.3731001615524292,0.42643645405769348,-39.083663940429688,-0.0069214422255754471,-0.00034958121250383556,-9.8111333847045898,0.0037325031589716673,8
-2.7198333740234375,-77.140525817871094,-0.12279955297708511,-0.4264863133430481,-39.083641052246094,-0.0023888279683887959,0.00043988224933855236,-9.8111333847045898,0.0012848338810727,8
-1.2815529108047485,-77.312545776367188,-0.091466188430786133,-0.15781486034393311,-39.121604919433594,-1.1504842404974625e-05,0.0001265108585357666,-9.8101034164428711,1.0759694305306766e-05,8
-0.37194731831550598,-77.632926940917969,-0.061535418033599854,4.2394163756398484e-05,-39.196445465087891,0.0010628371965140104,7.7685399446636438e-06,-9.8102178573608398,-5.6287968618562445e-05,8
0.37221333384513855,-77.632926940917969,-0.061579648405313492,9.2991373094264418e-05,-39.196445465087891,0.0010583758121356368,-4.1935705667128786e-05,-9.8102178573608398,-5.1925886509707198e-05,8
1.2815543413162231,-77.312545776367188,-0.09146629273891449,0.15781500935554504,-39.121604919433594,-1.1459243978606537e-05,-0.0001265108585357666,-9.8101034164428711,1.0755901712400373e-05,8
2.7198500633239746,-77.140541076660156,-0.12280020117759705,0.42649045586585999,-39.083641052246094,-0.0023889208678156137,-0.00043988224933855236,-9.8111333847045898,0.0012848408659920096,8
-2.7198343276977539,-77.140525817871094,0.12279992550611496,-0.4264863133430481,-39.083641052246094,0.0023889399599283934,0.00043988224933855236,-9.8111333847045898,-0.0012848338810727,8
-1.2815498113632202,-77.312545776367188,0.091474682092666626,-0.15781478583812714,-39.121604919433594,1.4105732589086983e-05,0.0001265108585357666,-9.8101034164428711,-1.0752545676950831e-05,8
-0.37193548679351807,-77.632904052734375,0.069099105894565582,4.1985946154454723e-05,-39.196445465087891,0.0010759885190054774,7.5409839155327063e-06,-9.8101034164428711,-4.3791947973659262e-05,8
0.37221747636795044,-77.632911682128906,0.069088861346244812,9.1575711849145591e-05,-39.196449279785156,0.0010715354001149535,-4.0155642636818811e-05,-9.8102178573608398,-3.9967704651644453e-05,8
1.2815523147583008,-77.312545776367188,0.091474413871765137,0.15781497955322266,-39.121604919433594,1.4142592590360437e-05,-0.0001265108585357666,-9.8101034164428711,-1.0748971362772863e-05,8
2.719851016998291,-77.140541076660156,0.12279923260211945,0.42649045586585999,-39.083641052246094,0.0023888540454208851,-0.00043988224933855236,-9.8111333847045898,-0.0012848338810727,8
-2.7034463882446289,-77.140792846679688,0.37310028076171875,-0.42643225193023682,-39.083663940429688,0.0069214561954140663,0.00034958121250383556,-9.8111333847045898,-0.0037325031589716673,8
-1.3160085678100586,-77.309776306152344,0.28104957938194275,-0.15785495936870575,-39.121574401855469,3.9832302718423307e-05,0.00018462537263985723,-9.8102178573608398,-3.2760362955741584e-05,8
-0.37193048000335693,-77.635017395019531,0.21060372889041901,4.2020823457278311e-05,-39.196468353271484,0.0010841542389243841,9.3405824372894131e-06,-9.8102178573608398,-2.5386687411810271e-05,8
0.3722209632396698,-77.635017395019531,0.21059083938598633,8.5658655734732747e-05,-39.196468353271484,0.0010801661992445588,-2.8687061785603873e-05,-9.8102178573608398,-2.2383172108675353e-05,8
1.3160099983215332,-77.309700012207031,0.28105023503303528,0.1578553169965744,-39.121574401855469,3.9862330595497042e-05,-0.00018507240747567266,-9.8102178573608398,-3.2752723200246692e-05,8
2.7034645080566406,-77.140792846679688,0.37310028076171875,0.42643651366233826,-39.083663940429688,0.0069214389659464359,-0.00034958121250383556,-9.8111333847045898,-0.0037325031589716673,8
-2.6649131774902344,-77.14031982421875,0.64133352041244507,-0.42634937167167664,-39.083705902099609,0.010481012985110283,0.00021100042795296758,-9.8111333847045898,-0.0056815049611032009,8
-1.3886622190475464,-77.30029296875,0.49369651079177856,-0.15794751048088074,-39.121490478515625,6.2540631915908307e-05,0.00031694766948930919,-9.8104467391967773,-5.3688268963014707e-05,8
-0.37767335772514343,-77.624984741210938,0.38299691677093506,4.2498650145716965e-05,-39.196456909179688,0.0010880776681005955,1.1518349310790654e-05,-9.8102178573608398,-1.2003582924080547e-05,8
-0.20589110255241394,-77.635154724121094,0.37528449296951294,4.6075070713413879e-05,-39.19647216796875,0.0010884216753765941,1.4762080354557838e-05,-9.8101034164428711,-8.6612999439239502e-06,8
-0.065197482705116272,-77.633071899414062,0.37527331709861755,5.1963990699732676e-05,-39.196456909179688,0.0010882482165470719,1.5366495063062757e-05,-9.8102178573608398,-5.413312010205118e-06,8
0.064987078309059143,-77.633056640625,0.37526369094848633,5.8737754443427548e-05,-39.196456909179688,0.0010876051383092999,1.1108749276900198e-05,-9.8102178573608398,-4.9557997954252642e-06,8
0.20574380457401276,-77.635147094726562,0.37525379657745361,6.9157373218331486e-05,-39.19647216796875,0.0010862501803785563,-1.0852818377315998e-06,-9.8101034164428711,-7.1071549427870195e-06,8
0.37759509682655334,-77.624969482421875,0.38296452164649963,7.8773387940600514e-05,-39.196456909179688,0.0010846930090337992,-1.4827018276264425e-05,-9.8102178573608398,-9.5868008429533802e-06,8
1.3886618614196777,-77.30029296875,0.4936961829662323,0.15794770419597626,-39.121490478515625,6.2560386140830815e-05,-0.00031694766948930919,-9.8104467391967773,-5.3669933549826965e-05,8
2.6649296283721924,-77.140312194824219,0.64133411645889282,0.42635372281074524,-39.083705902099609,0.010481045581400394,-0.00021100042795296758,-9.8111333847045898,-0.0056815049611032009,8
-2.0380301475524902,-77.124656677246094,1.5660111904144287,-0.24045993387699127,-39.081405639648438,0.23212029039859772,0.002567320829257369,-9.8118200302124023,0.0016620754031464458,8
-1.6989821195602417,-77.131584167480469,1.6989740133285522,-0.23605583608150482,-39.081771850585938,0.23605439066886902,0.00024855136871337891,-9.8114767074584961,-0.00024810433387756348,8
-0.49369120597839355,-77.30029296875,1.3886599540710449,-6.1417958931997418e-05,-39.121490478515625,0.15794616937637329,5.3624968131771311e-05,-9.8104467391967773,-0.00031694766948930919,8
-0.28104463219642639,-77.309700012207031,1.3160079717636108,-3.8740159652661532e-05,-39.121574401855469,0.15785372257232666,3.2723146432545036e-05,-9.8102178573608398,-0.00018507240747567266,8
-0.091470547020435333,-77.312545776367188,1.2815451622009277,-1.3046594176557846e-05,-39.121604919433594,0.15781332552433014,1.0740376637841109e-05,-9.8101034164428711,-0.00012606382369995117,8
0.091468535363674164,-77.312545776367188,1.2815454006195068,1.252767560799839e-05,-39.121604919433594,0.15781331062316895,-1.0741904588940088e-05,-9.8101034164428711,-0.0001265108585357666,8
0.28104290366172791,-77.309700012207031,1.3160059452056885,3.8221452996367589e-05,-39.121574401855469,0.15785369277000427,-3.2725001801736653e-05,-9.8102178573608398,-0.00018507240747567266,8
0.49368903040885925,-77.30029296875,1.3886557817459106,6.0900059906998649e-05,-39.121490478515625,0.15794610977172852,-5.3627914894605055e-05,-9.8104467391967773,-0.00031694766948930919,8
1.6989853382110596,-77.131584167480469,1.6989794969558716,0.23605677485466003,-39.081771850585938,0.23605579137802124,-0.00024855136871337891,-9.8114767074584961,-0.00024855136871337891,8
2.0380408763885498,-77.124656677246094,1.5660114288330078,0.24046219885349274,-39.081405639648438,0.23212058842182159,-0.002567320829257369,-9.8118200302124023,0.0016620754031464458,8
-1.8764268159866333,-77.122421264648438,1.8764224052429199,-0.23612277209758759,-39.08148193359375,0.23612140119075775,0.00030890104244463146,-9.8118200302124023,-0.00030845400760881603,8
-1.5660092830657959,-77.124656677246094,2.038034200668335,-0.23211996257305145,-39.081405639648438,0.24046044051647186,-0.0016620754031464458,-9.8118200302124023,-0.002567320829257369,8
-0.64133232831954956,-77.14031982421875,2.6649196147918701,-0.010480987839400768,-39.083705902099609,0.4263511598110199,0.0056814770214259624,-9.8111333847045898,-0.00021100042795296758,8
-0.37309896945953369,-77.140792846679688,2.7034518718719482,-0.0069214310497045517,-39.083663940429688,0.42643409967422485,0.0037324752192944288,-9.8111333847045898,-0.00034958121250383556,8
-0.1227995902299881,-77.140541076660156,2.7198390960693359,-0.0023889404255896807,-39.083641052246094,0.42648816108703613,0.0012848129263147712,-9.8111333847045898,-0.00043988224933855236,8
0.12279868125915527,-77.140541076660156,2.7198400497436523,0.0023887264542281628,-39.083641052246094,0.42648822069168091,-0.0012848129263147712,-9.8111333847045898,-0.00043988224933855236,8
0.37309816479682922,-77.140792846679688,2.7034540176391602,0.0069212228991091251,-39.083663940429688,0.42643430829048157,-0.0037324612494558096,-9.8111333847045898,-0.00034958121250383556,8
0.64133155345916748,-77.140312194824219,2.6649224758148193,0.010480773635208607,-39.083705902099609,0.42635154724121094,-0.0056814770214259624,-9.8111333847045898,-0.00021100042795296758,8
1.5660125017166138,-77.124656677246094,2.038038969039917,0.23212097585201263,-39.081405639648438,0.24046178162097931,0.0016620754031464458,-9.8118200302124023,-0.002567320829257369,8
1.8764311075210571,-77.122421264648438,1.8764268159866333,0.23612374067306519,-39.08148193359375,0.23612277209758759,-0.00030890104244463146,-9.8118200302124023,-0.00030845400760881603,8
-1.8655967712402344,-76.830421447753906,-1.8655939102172852,-0.23693288862705231,-39.07745361328125,-0.23693215847015381,0.00091865652939304709,-9.8149099349975586,0.00091865652939304709,8
-1.5636495351791382,-76.833206176757812,-2.020216703414917,-0.23320108652114868,-39.077865600585938,-0.24072949588298798,-0.00092715019127354026,-9.8149099349975586,0.0028552112635225058,8
-0.64146429300308228,-76.862258911132812,-2.6461238861083984,-0.010357128456234932,-39.081748962402344,-0.42696130275726318,0.0056246756576001644,-9.8128499984741211,0.00074386590858921409,8
-0.37406179308891296,-76.861488342285156,-2.6860463619232178,-0.0069060958921909332,-39.08160400390625,-0.4270709753036499,0.0037374764215201139,-9.8128499984741211,0.0008976458921097219,8
-0.12301133573055267,-76.860954284667969,-2.7031197547912598,-0.002382268663495779,-39.08154296875,-0.42713683843612671,0.0012877396075055003,-9.8129644393920898,0.00099509954452514648,8
0.12301056832075119,-76.860954284667969,-2.7031195163726807,0.002381978090852499,-39.08154296875,-0.4271368682384491,-0.0012877605622634292,-9.8129644393920898,0.00099509954452514648,8
0.37406060099601746,-76.861488342285156,-2.6860466003417969,0.0069057722575962543,-39.08160400390625,-0.42707109451293945,-0.0037375043611973524,-9.8128499984741211,0.0008976458921097219,8
0.64146327972412109,-76.862258911132812,-2.6461248397827148,0.010356794111430645,-39.081748962402344,-0.42696145176887512,-0.0056247035972774029,-9.8128499984741211,0.00074386590858921409,8
1.5636500120162964,-76.833206176757812,-2.0202229022979736,0.23320147395133972,-39.077865600585938,-0.24073135852813721,0.00092759722610935569,-9.8149099349975586,0.0028552112635225058,8
1.8655985593795776,-76.830421447753906,-1.8655984401702881,0.23693370819091797,-39.07745361328125,-0.23693366348743439,-0.00091865652939304709,-9.8149099349975586,0.00091865652939304709,8
-2.0202133655548096,-76.833206176757812,-1.5636494159698486,-0.24072900414466858,-39.077865600585938,-0.23320135474205017,0.0028552112635225058,-9.8149099349975586,-0.00092715019127354026,8
-1.7014391422271729,-76.830360412597656,-1.7014366388320923,-0.23694285750389099,-39.077384948730469,-0.23694208264350891,0.00092267984291538596,-9.8151388168334961,0.00092267984291538596,8
-0.51222574710845947,-77.054519653320312,-1.4814664125442505,-7.7490243711508811e-05,-39.121150970458984,-0.15832339227199554,7.5946365541312844e-05,-9.8107900619506836,0.00083327287575230002,8
-0.28701561689376831,-77.0770263671875,-1.3956778049468994,-4.9364298320142552e-05,-39.121280670166016,-0.158183753490448,4.6849378122715279e-05,-9.8106756210327148,0.00063478940865024924,8
-0.094375893473625183,-77.085853576660156,-1.3540604114532471,-1.7312073396169581e-05,-39.121334075927734,-0.15811225771903992,1.5710993466200307e-05,-9.8104467391967773,0.00053286552429199219,8
0.094370782375335693,-77.085853576660156,-1.3540607690811157,1.5703883036621846e-05,-39.121334075927734,-0.15811227262020111,-1.5720706869615242e-05,-9.8104467391967773,0.00053286552429199219,8
0.28701052069664001,-77.077018737792969,-1.395677924156189,4.7757734137121588e-05,-39.121280670166016,-0.15818379819393158,-4.6861274313414469e-05,-9.8106756210327148,0.00063478940865024924,8
0.51222097873687744,-77.054519653320312,-1.4814678430557251,7.5885611295234412e-05,-39.121150970458984,-0.15832345187664032,-7.5961426773574203e-05,-9.8107900619506836,0.00083327287575230002,8
1.7014415264129639,-76.830360412597656,-1.7014414072036743,0.23694367706775665,-39.077384948730469,-0.23694361746311188,-0.00092267984291538596,-9.8151388168334961,0.00092267984291538596,8
2.0202193260192871,-76.833206176757812,-1.5636522769927979,0.24073061347007751,-39.077865600585938,-0.23320208489894867,-0.0028552112635225058,-9.8149099349975586,-0.00092715019127354026,8
-2.6461069583892822,-76.862258911132812,-0.64146131277084351,-0.4269566535949707,-39.081748962402344,-0.010356630198657513,0.00074386590858921409,-9.8128499984741211,0.0056246197782456875,8
-1.481471061706543,-77.054512023925781,-0.51221853494644165,-0.15832366049289703,-39.121147155761719,-7.5379808549769223e-05,0.00083327287575230002,-9.8107900619506836,7.596011710120365e-05,8
-0.39609691500663757,-77.416618347167969,-0.39229097962379456,4.5589691580971703e-05,-39.196159362792969,0.0010306717595085502,1.1404626093280967e-05,-9.8104467391967773,-9.4911076303105801e-05,8
-0.22134016454219818,-77.426933288574219,-0.40136179327964783,4.9753922212403268e-05,-39.196151733398438,0.0010034296428784728,1.4110627489571925e-05,-9.8104467391967773,-2.3357568352366798e-05,8
-0.072342216968536377,-77.440765380859375,-0.4033796489238739,5.6402528571197763e-05,-39.196144104003906,0.00098164880182594061,1.3930220120528247e-05,-9.8104467391967773,2.8257489248062484e-05,8
0.072135455906391144,-77.440750122070312,-0.40339130163192749,6.443939491873607e-05,-39.196144104003906,0.00098106393124908209,8.3504710346460342e-06,-9.8104467391967773,3.0111985324765556e-05,8
0.22118319571018219,-77.426918029785156,-0.40138703584671021,7.4591633165255189e-05,-39.196151733398438,0.0010014253202825785,-3.5762784591497621e-06,-9.8104467391967773,-1.8597345842863433e-05,8
0.39598774909973145,-77.416610717773438,-0.39231997728347778,8.3119732153136283e-05,-39.196159362792969,0.0010273762745782733,-1.4997057405707892e-05,-9.8104467391967773,-8.9253291662316769e-05,8
1.4814692735671997,-77.054512023925781,-0.51221746206283569,0.1583237498998642,-39.121147155761719,-7.5313437264412642e-05,-0.00083327287575230002,-9.8107900619506836,7.5938507507089525e-05,8
2.6461217403411865,-76.862258911132812,-0.64146214723587036,0.42696091532707214,-39.081748962402344,-0.010356765240430832,-0.00074386590858921409,-9.8128499984741211,0.0056246756576001644,8
-2.6860294342041016,-76.861480712890625,-0.37405949831008911,-0.42706632614135742,-39.08160400390625,-0.0069056805223226547,0.0008976458921097219,-9.8128499984741211,0.0037374764215201139,8
-1.3956820964813232,-77.077018737792969,-0.28700977563858032,-0.15818393230438232,-39.121280670166016,-4.7256762627512217e-05,0.00063523644348606467,-9.8107900619506836,4.6862038288963959e-05,8
-0.40475383400917053,-77.426986694335938,-0.21763570606708527,4.5268152462085709e-05,-39.196155548095703,0.0010478423209860921,9.9574381238198839e-06,-9.8105611801147461,-8.2865582953672856e-05,8
-0.23007091879844666,-77.398170471191406,-0.22680754959583282,4.9466038035461679e-05,-39.196067810058594,0.0010360407177358866,1.2409581358951982e-05,-9.8107900619506836,-6.2909675762057304e-05,8
-0.077426083385944366,-77.404014587402344,-0.22621376812458038,5.630652594845742e-05,-39.195999145507812,0.0010257901158183813,1.2195122508273926e-05,-9.8107900619506836,-4.7039935452630743e-05,8
0.077267587184906006,-77.403999328613281,-0.22621124982833862,6.5136278863064945e-05,-39.195999145507812,0.0010250527411699295,5.4235711104411166e-06,-9.8107900619506836,-4.5608026994159445e-05,8
0.22995370626449585,-77.398147583007812,-0.22683337330818176,7.6263488153927028e-05,-39.196067810058594,0.0010337403509765863,-9.3466942416853271e-06,-9.8107900619506836,-5.9246081946184859e-05,8
0.40472841262817383,-77.426956176757812,-0.21767431497573853,8.5659572505392134e-05,-39.196155548095703,0.0010443314677104354,-2.4918479539337568e-05,-9.8105611801147461,-7.7881843026261777e-05,8
1.3956812620162964,-77.077018737792969,-0.28700920939445496,0.15818405151367188,-39.121280670166016,-4.7199362597893924e-05,-0.00063478940865024924,-9.8107900619506836,4.6848177589708939e-05,8
2.6860425472259521,-76.861480712890625,-0.37406042218208313,0.42707061767578125,-39.08160400390625,-0.0069058099761605263,-0.0008976458921097219,-9.8128499984741211,0.0037374764215201139,8
-2.7031028270721436,-76.860939025878906,-0.12301085889339447,-0.42713218927383423,-39.081539154052734,-0.0023820267524570227,0.00099509954452514648,-9.8129644393920898,0.0012877605622634292,8
-1.3540623188018799,-77.085845947265625,-0.094370104372501373,-0.15811237692832947,-39.121334075927734,-1.5211526260827668e-05,0.00053286552429199219,-9.8104467391967773,1.5727418940514326e-05,8
-0.40638825297355652,-77.440818786621094,-0.068843245506286621,4.4703352614305913e-05,-39.196151733398438,0.0010671982308849692,8.3863778854720294e-06,-9.8105611801147461,-6.5843341872096062e-05,8
-0.22915837168693542,-77.404022216796875,-0.074291661381721497,4.9382058932678774e-05,-39.196002960205078,0.0010640497785061598,1.0801303687912878e-05,-9.8107900619506836,-6.7621003836393356e-05,8
-0.066242881119251251,-77.398605346679688,-0.063462346792221069,5.6949382269522175e-05,-39.195896148681641,0.0010629915632307529,1.0110342373081949e-05,-9.8107900619506836,-6.6548818722367287e-05,8
0.066132701933383942,-77.398605346679688,-0.063438475131988525,6.4233041484840214e-05,-39.195896148681641,0.0010623438283801079,4.0003942558541894e-06,-9.8107900619506836,-6.5839849412441254e-05,8
0.22906768321990967,-77.403976440429688,-0.074309200048446655,7.6876895036548376e-05,-39.196002960205078,0.0010616159997880459,-1.3922034668212291e-05,-9.8107900619506836,-6.5012136474251747e-05,8
0.40644130110740662,-77.440773010253906,-0.068875782191753387,8.749256085138768e-05,-39.196151733398438,0.0010634366190060973,-3.2395182643085718e-05,-9.8104467391967773,-6.1861937865614891e-05,8
1.3540627956390381,-77.085845947265625,-0.09436991810798645,0.15811249613761902,-39.121334075927734,-1.5164634532993659e-05,-0.00053286552429199219,-9.8104467391967773,1.572299879626371e-05,8
2.7031173706054688,-76.860939025878906,-0.12301149219274521,0.42713648080825806,-39.081539154052734,-0.0023821720387786627,-0.00099509954452514648,-9.8129644393920898,0.0012877745321020484,8
-2.7031033039093018,-76.860939025878906,0.1230112612247467,-0.42713218927383423,-39.081539154052734,0.0023821429349482059,0.00099509954452514648,-9.8129644393920898,-0.0012877605622634292,8
-1.3540596961975098,-77.085845947265625,0.094377525150775909,-0.1581123024225235,-39.121334075927734,1.7795784515328705e-05,0.00053286552429199219,-9.8104467391967773,-1.569784217281267e-05,8
-0.40623795986175537,-77.440826416015625,0.075390450656414032,4.4336353312246501e-05,-39.196155548095703,0.0010781016899272799,8.0284007708542049e-06,-9.8105611801147461,-4.2171446693828329e-05,8
-0.22907097637653351,-77.404083251953125,0.08031068742275238,4.889187403023243e-05,-39.196006774902344,0.0010774184484034777,1.0478360309207346e-05,-9.8107900619506836,-4.1567251173546538e-05,8
-0.066274575889110565,-77.398612976074219,0.068986155092716217,5.6409720855299383e-05,-39.195899963378906,0.001075146603398025,9.9733724709949456e-06,-9.8107900619506836,-4.4085314584663138e-05,8
0.066171415150165558,-77.398605346679688,0.068951204419136047,6.3572893850505352e-05,-39.195899963378906,0.0010745037579908967,4.0073791751638055e-06,-9.8107900619506836,-4.3540490878513083e-05,8
0.2289910614490509,-77.404045104980469,0.080301247537136078,7.5822485086973757e-05,-39.196006774902344,0.0010750230867415667,-1.3496609426510986e-05,-9.8107900619506836,-3.9541624573757872e-05,8
0.40630179643630981,-77.440780639648438,0.075380638241767883,8.6322448623832315e-05,-39.196155548095703,0.0010743868770077825,-3.1591698643751442e-05,-9.8105611801147461,-3.8972353650024161e-05,8
1.354060173034668,-77.085845947265625,0.094377301633358002,0.15811242163181305,-39.121334075927734,1.7833963283919729e-05,-0.00053286552429199219,-9.8104467391967773,-1.5694349713157862e-05,8
2.7031188011169434,-76.860946655273438,0.12301064282655716,0.42713648080825806,-39.081539154052734,0.0023820914793759584,-0.00099509954452514648,-9.8129644393920898,-0.0012877675471827388,8
-2.6860301494598389,-76.861480712890625,0.37406069040298462,-0.4270663857460022,-39.08160400390625,0.006905839778482914,0.0008976458921097219,-9.8128499984741211,-0.0037375043611973524,8
-1.3956760168075562,-77.077018737792969,0.28701740503311157,-0.1581837385892868,-39.121280670166016,4.9837206461234018e-05,0.00063478940865024924,-9.8107900619506836,-4.6827222831780091e-05,8
-0.40416774153709412,-77.427009582519531,0.22417494654655457,4.4111864553997293e-05,-39.196159362792969,0.0010842925403267145,8.8797960415831767e-06,-9.8104467391967773,-2.1017620383645408e-05,8
-0.22968722879886627,-77.398223876953125,0.23285745084285736,4.7911595174809918e-05,-39.196079254150391,0.0010838605230674148,1.1569535672606435e-05,-9.8107900619506836,-1.8988501324201934e-05,8
-0.077315390110015869,-77.404067993164062,0.23195101320743561,5.4204803745960817e-05,-39.196010589599609,0.0010828884551301599,1.1923038073291536e-05,-9.8107900619506836,-1.8489079593564384e-05,8
0.07718522846698761,-77.404052734375,0.23193658888339996,6.2463703216053545e-05,-39.196010589599609,0.0010821350151672959,5.9463486650201958e-06,-9.8107900619506836,-1.7919808669830672e-05,8
0.22960317134857178,-77.398208618164062,0.23284891247749329,7.3019713454414159e-05,-39.196079254150391,0.0010815839050337672,-7.7958247857168317e-06,-9.8107900619506836,-1.7266720533370972e-05,8
0.40417447686195374,-77.426986694335938,0.22417166829109192,8.2096114056184888e-05,-39.196163177490234,0.001080868998542428,-2.2459569663624279e-05,-9.8105611801147461,-1.8412245481158607e-05,8
1.3956760168075562,-77.077018737792969,0.2870173454284668,0.15818387269973755,-39.121280670166016,4.9862042942550033e-05,-0.00063434237381443381,-9.8107900619506836,-4.6812598156975582e-05,8
2.6860466003417969,-76.861480712890625,0.37406086921691895,0.42707064747810364,-39.08160400390625,0.0069058663211762905,-0.0008976458921097219,-9.8128499984741211,-0.0037375043611973524,8
-2.6461074352264404,-76.862258911132812,0.64146232604980469,-0.42695671319961548,-39.081748962402344,0.010356799699366093,0.00074386590858921409,-9.8128499984741211,-0.0056246756576001644,8
-1.4814667701721191,-77.054512023925781,0.51222747564315796,-0.15832336246967316,-39.121147155761719,7.7953634900040925e-05,0.00083282584091648459,-9.8107900619506836,-7.5916024798061699e-05,8
-0.39508503675460815,-77.416702270507812,0.39881092309951782,4.385460852063261e-05,-39.196170806884766,0.0010870012920349836,9.7441798061481677e-06,-9.8104467391967773,-7.8685116022825241e-06,8
-0.22060517966747284,-77.427047729492188,0.40755158662796021,4.726909173768945e-05,-39.196163177490234,0.0010866662487387657,1.3098796443955507e-05,-9.8104467391967773,-6.6217030507687014e-06,8
-0.072078406810760498,-77.44085693359375,0.40930649638175964,5.2932602557120845e-05,-39.196159362792969,0.001086185802705586,1.3967654922453221e-05,-9.8104467391967773,-4.9313525778416079e-06,8
0.071916505694389343,-77.44085693359375,0.40930557250976562,6.014273822074756e-05,-39.196159362792969,0.0010855103610083461,9.6770590971573256e-06,-9.8104467391967773,-4.4389157665136736e-06,8
0.22049058973789215,-77.427017211914062,0.40754568576812744,6.9667687057517469e-05,-39.196163177490234,0.0010845783399417996,-8.5630739476982853e-07,-9.8104467391967773,-5.098990641272394e-06,8
0.39501726627349854,-77.41668701171875,0.39879664778709412,7.7831893577240407e-05,-39.196170806884766,0.0010838391026481986,-1.154912661149865e-05,-9.8104467391967773,-5.5669802350166719e-06,8
1.481465220451355,-77.05450439453125,0.51222681999206543,0.15832352638244629,-39.121147155761719,7.7972130384296179e-05,-0.00083282584091648459,-9.8107900619506836,-7.5897252827417105e-05,8
2.6461238861083984,-76.862258911132812,0.64146304130554199,0.42696100473403931,-39.081748962402344,0.01035685557872057,-0.00074386590858921409,-9.8128499984741211,-0.0056246756576001644,8
-2.0202109813690186,-76.833206176757812,1.5636478662490845,-0.24072836339473724,-39.077865600585938,0.23320083320140839,0.0028552112635225058,-9.8149099349975586,0.00092715019127354026,8
-1.7014385461807251,-76.830360412597656,1.7014313936233521,-0.2369426041841507,-39.077384948730469,0.23694124817848206,0.00092267984291538596,-9.8151388168334961,-0.00092267984291538596,8
-0.5122225284576416,-77.05450439453125,1.4814639091491699,-7.683119474677369e-05,-39.121147155761719,0.15832200646400452,7.5859927164856344e-05,-9.8107900619506836,-0.00083327287575230002,8
-0.28701287508010864,-77.077018737792969,1.3956732749938965,-4.8742163926362991e-05,-39.121280670166016,0.15818227827548981,4.6790224587311968e-05,-9.8107900619506836,-0.00063478940865024924,8
-0.094374239444732666,-77.085845947265625,1.3540549278259277,-1.6742214938858524e-05,-39.121334075927734,0.15811075270175934,1.5693913155701011e-05,-9.8104467391967773,-0.00053286552429199219,8
0.09437183290719986,-77.085845947265625,1.3540536165237427,1.6225656509050168e-05,-39.121334075927734,0.15811073780059814,-1.569860614836216e-05,-9.8104467391967773,-0.00053286552429199219,8
0.28701111674308777,-77.077018737792969,1.3956688642501831,4.8226134822471067e-05,-39.121280670166016,0.15818223357200623,-4.6795572416158393e-05,-9.8107900619506836,-0.00063478940865024924,8
0.51222139596939087,-77.05450439453125,1.4814611673355103,7.6316733611747622e-05,-39.121147155761719,0.15832193195819855,-7.5867130362894386e-05,-9.8107900619506836,-0.00083327287575230002,8
1.701441764831543,-76.830360412597656,1.7014356851577759,0.23694361746311188,-39.077384948730469,0.2369426041841507,-0.00092267984291538596,-9.8151388168334961,-0.00092267984291538596,8
2.0202195644378662,-76.833206176757812,1.56364905834198,0.24073052406311035,-39.077865600585938,0.23320119082927704,-0.0028552112635225058,-9.8149099349975586,0.00092715019127354026,8
-1.8655954599380493,-76.830421447753906,1.8655900955200195,-0.23693260550498962,-39.07745361328125,0.23693132400512695,0.00091865652939304709,-9.8149099349975586,-0.00091865652939304709,8
-1.5636463165283203,-76.833206176757812,2.0202136039733887,-0.23320052027702332,-39.077865600585938,0.24072881042957306,-0.00092715019127354026,-9.8149099349975586,-0.0028552112635225058,8
-0.64146190881729126,-76.862258911132812,2.6461141109466553,-0.010356777347624302,-39.081748962402344,0.42695853114128113,0.0056246197782456875,-9.8128499984741211,-0.00074386590858921409,8
-0.37405991554260254,-76.861480712890625,2.6860339641571045,-0.0069058453664183617,-39.08160400390625,0.42706826329231262,0.0037374624516814947,-9.8128499984741211,-0.0008976458921097219,8
-0.12301130592823029,-76.860946655273438,2.7031087875366211,-0.0023821971844881773,-39.081539154052734,0.42713415622711182,0.0012877605622634292,-9.8129644393920898,-0.00099509954452514648,8
0.1230100691318512,-76.860946655273438,2.7031099796295166,0.0023819797206670046,-39.081539154052734,0.42713424563407898,-0.0012877465924248099,-9.8129644393920898,-0.00099509954452514648,8
0.37405920028686523,-76.861480712890625,2.6860377788543701,0.0069056553766131401,-39.08160400390625,0.42706847190856934,-0.0037374624516814947,-9.8128499984741211,-0.0008976458921097219,8
0.64146131277084351,-76.862258911132812,2.6461172103881836,0.010356590151786804,-39.081748962402344,0.42695885896682739,-0.0056246197782456875,-9.8128499984741211,-0.00074386590858921409,8
1.5636509656906128,-76.833206176757812,2.0202174186706543,0.23320160806179047,-39.077865600585938,0.24073007702827454,0.00092715019127354026,-9.8149099349975586,-0.0028552112635225058,8
1.8655985593795776,-76.830421447753906,1.8655951023101807,0.23693364858627319,-39.07745361328125,0.2369326651096344,-0.00091865652939304709,-9.8149099349975586,-0.00091865652939304709,8
-1.6907422542572021,-76.079017639160156,-1.6907436847686768,-0.18965870141983032,-38.883708953857422,-0.18965940177440643,0.00011757015454350039,-9.8097600936889648,0.00011757015454350039,8
-1.4043327569961548,-76.030952453613281,-1.7935265302658081,-0.18946193158626556,-38.883686065673828,-0.18984568119049072,-0.00028386709163896739,-9.8097600936889648,0.00049486756324768066,8
-0.66998398303985596,-75.836875915527344,-2.0775051116943359,-0.014872416853904724,-38.825164794921875,-0.26594680547714233,0.0077795232646167278,-9.8086156845092773,0.0012767313746735454,8
-0.39023363590240479,-75.824691772460938,-2.1136820316314697,-0.0097393505275249481,-38.826248168945312,-0.26718106865882874,0.0050902455113828182,-9.8083868026733398,0.0018560885218903422,8
-0.1280817836523056,-75.821487426757812,-2.1283161640167236,-0.0033162699546664953,-38.826828002929688,-0.26787251234054565,0.001739559113048017,-9.8080434799194336,0.002212822437286377,8
0.12808051705360413,-75.821487426757812,-2.1283180713653564,0.0033157356083393097,-38.826828002929688,-0.26787269115447998,-0.0017396289622411132,-9.8080434799194336,0.002212822437286377,8
0.3902319073677063,-75.824691772460938,-2.113685131072998,0.0097387377172708511,-38.826248168945312,-0.26718157529830933,-0.0050903293304145336,-9.8083868026733398,0.0018560885218903422,8
0.66998153924942017,-75.836875915527344,-2.0775082111358643,0.014871660619974136,-38.825164794921875,-0.26594766974449158,-0.0077794953249394894,-9.8086156845092773,0.0012776254443451762,8
1.4043331146240234,-76.030952453613281,-1.7935284376144409,0.18946251273155212,-38.883686065673828,-0.18984583020210266,0.00028386709163896739,-9.8097600936889648,0.00049486756324768066,8
1.6907440423965454,-76.079010009765625,-1.6907447576522827,0.18965931236743927,-38.883708953857422,-0.18965956568717957,-0.00011712311970768496,-9.8097600936889648,0.00011712311970768496,8
-1.7935241460800171,-76.030952453613281,-1.4043337106704712,-0.18984498083591461,-38.883686065673828,-0.18946263194084167,0.00049486756324768066,-9.8097600936889648,-0.00028386709163896739,8
-1.491340160369873,-75.945121765136719,-1.4913425445556641,-0.18960356712341309,-38.883594512939453,-0.1896042674779892,2.6822087875189027e-06,-9.8101034164428711,2.6822087875189027e-06,8
-0.67487460374832153,-75.690513610839844,-1.7502708435058594,-0.01601436547935009,-38.817359924316406,-0.25815114378929138,0.0080811604857444763,-9.8099889755249023,-0.0001931190345203504,8
-0.38808789849281311,-75.677085876464844,-1.7632651329040527,-0.010353541933000088,-38.8172607421875,-0.25822785496711731,0.0052453665994107723,-9.8101034164428711,-1.6093254089355469e-05,8
-0.127772256731987,-75.673110961914062,-1.7670720815658569,-0.00360707170329988,-38.817157745361328,-0.25827935338020325,0.001821869402192533,-9.8101034164428711,9.387730824528262e-05,8
0.12777054309844971,-75.673110961914062,-1.7670722007751465,0.0036065415479242802,-38.817157745361328,-0.25827929377555847,-0.0018218973418697715,-9.8101034164428711,9.387730824528262e-05,8
0.38808572292327881,-75.677085876464844,-1.7632656097412109,0.010352950543165207,-38.8172607421875,-0.25822773575782776,-0.0052453386597335339,-9.8101034164428711,-1.6093254089355469e-05,8
0.67487126588821411,-75.690505981445312,-1.7502717971801758,0.016013635322451591,-38.817359924316406,-0.25815090537071228,-0.0080811046063899994,-9.8099889755249023,-0.0001931190345203504,8
1.491342306137085,-75.945121765136719,-1.4913432598114014,0.18960417807102203,-38.883594512939453,-0.18960443139076233,-2.6822087875189027e-06,-9.8101034164428711,2.6822087875189027e-06,8
1.7935271263122559,-76.030952453613281,-1.404334545135498,0.18984559178352356,-38.883686065673828,-0.18946278095245361,-0.00049486756324768066,-9.8097600936889648,-0.00028386709163896739,8
-2.0775110721588135,-75.836891174316406,-0.66998052597045898,-0.26594936847686768,-38.825168609619141,-0.014871534891426563,0.0012767313746735454,-9.8086156845092773,0.0077793835662305355,8
-1.7502732276916504,-75.690521240234375,-0.6748700737953186,-0.25815168023109436,-38.817363739013672,-0.016013523563742638,-0.0001931190345203504,-9.8099889755249023,0.0080811604857444763,8
-0.51490461826324463,-75.828628540039062,-0.51489990949630737,-0.000265368667896837,-38.872325897216797,-0.00026508243172429502,0.00021756974456366152,-9.8101034164428711,0.00021752346947323531,8
-0.28865599632263184,-75.904914855957031,-0.49763083457946777,-0.0001745561312418431,-38.872371673583984,-0.00023936225625220686,0.00014285075303632766,-9.8101034164428711,0.00019554236496333033,8
-0.094667918980121613,-75.942947387695312,-0.48971474170684814,-6.0189482610439882e-05,-38.872421264648438,-0.00022713844373356551,4.9124169891001657e-05,-9.8101034164428711,0.00018495017138775438,8
0.094665110111236572,-75.942947387695312,-0.48971462249755859,5.9814687119796872e-05,-38.872421264648438,-0.00022713614453095943,-4.9075602873926982e-05,-9.8101034164428711,0.00018494886171538383,8
0.28865310549736023,-75.904914855957031,-0.49763047695159912,0.00017417842173017561,-38.872371673583984,-0.0002393558097537607,-0.00014280011237133294,-9.8101034164428711,0.00019553843594621867,8
0.51490098237991333,-75.828628540039062,-0.51490098237991333,0.00026498490478843451,-38.872325897216797,-0.00026507338043302298,-0.00021751473832409829,-9.8101034164428711,0.0002175191038986668,8
1.7502734661102295,-75.690513610839844,-0.67487114667892456,0.2581518292427063,-38.817359924316406,-0.016013853251934052,0.0001931190345203504,-9.8099889755249023,0.0080810487270355225,8
2.0775136947631836,-75.836875915527344,-0.66998088359832764,0.26594963669776917,-38.825164794921875,-0.014871709048748016,-0.0012776254443451762,-9.8086156845092773,0.0077793276868760586,8
-2.1136932373046875,-75.82470703125,-0.39023128151893616,-0.26718389987945557,-38.826251983642578,-0.0097386632114648819,0.0018560885218903422,-9.8083868026733398,0.0050903013907372952,8
-1.7632684707641602,-75.677101135253906,-0.38808566331863403,-0.25822824239730835,-38.817264556884766,-0.010352924466133118,-1.6093254089355469e-05,-9.8101034164428711,0.0052451430819928646,8
-0.49763461947441101,-75.904914855957031,-0.28865346312522888,-0.00023963519197423011,-38.872371673583984,-0.00017428254068363458,0.00019557641644496471,-9.8101034164428711,0.00014281582843977958,8
-0.28286635875701904,-75.963844299316406,-0.28286358714103699,-0.00015690858708694577,-38.872428894042969,-0.00015664560487493873,0.00012786069419234991,-9.8101034164428711,0.00012783537385985255,8
-0.090942151844501495,-75.994293212890625,-0.28013533353805542,-5.2534931455738842e-05,-38.872463226318359,-0.00014957999519538134,4.2701318307081237e-05,-9.8101034164428711,0.00012173840514151379,8
0.090939559042453766,-75.994293212890625,-0.28013521432876587,5.2180475904606283e-05,-38.872463226318359,-0.00014957789971958846,-4.2669231334002689e-05,-9.8101034164428711,0.00012173709546914324,8
0.28286299109458923,-75.963844299316406,-0.28286358714103699,0.00015655152674298733,-38.872428894042969,-0.0001566393329994753,-0.00012782707926817238,-9.8101034164428711,0.00012783100828528404,8
0.49763146042823792,-75.904914855957031,-0.28865346312522888,0.00023927482834551483,-38.872371673583984,-0.0001742721360642463,-0.00019553974561858922,-9.8101034164428711,0.00014280840696301311,8
1.763267993927002,-75.677085876464844,-0.38808655738830566,0.25822821259498596,-38.8172607421875,-0.010353256948292255,1.6093254089355469e-05,-9.8101034164428711,0.0052453107200562954,8
2.1136953830718994,-75.824699401855469,-0.39023208618164062,0.26718398928642273,-38.826248168945312,-0.0097388988360762596,-0.0018560885218903422,-9.8083868026733398,0.0050902734510600567,8
-2.1283278465270996,-75.821502685546875,-0.12808077037334442,-0.26787534356117249,-38.826831817626953,-0.0033158168662339449,0.002212822437286377,-9.8080434799194336,0.0017395660979673266,8
-1.7670742273330688,-75.673133850097656,-0.1277712881565094,-0.2582797110080719,-38.817161560058594,-0.0036066770553588867,9.387730824528262e-05,-9.8101034164428711,0.0018219043267890811,8
-0.48971757292747498,-75.942947387695312,-0.094666466116905212,-0.00022739637643098831,-38.872421264648438,-5.9928242990281433e-05,0.00018497199926059693,-9.8101034164428711,4.9100050091510639e-05,8
-0.28013709187507629,-75.994293212890625,-0.090941213071346283,-0.0001498301571700722,-38.872463226318359,-5.2283368859207258e-05,0.00012175281153758988,-9.8101034164428711,4.268516568117775e-05,8
-0.089610278606414795,-76.022193908691406,-0.089609898626804352,-4.9288475565845147e-05,-38.872489929199219,-4.9048914661398157e-05,3.9954062231117859e-05,-9.8101034164428711,3.9948059566086158e-05,8
0.089608833193778992,-76.022186279296875,-0.089610382914543152,4.8960817366605625e-05,-38.872489929199219,-4.9047255743062124e-05,-3.9943912270246074e-05,-9.8101034164428711,3.9946640754351392e-05,8
0.28013473749160767,-75.994293212890625,-0.090940624475479126,0.00014950038166716695,-38.872463226318359,-5.2276987844379619e-05,-0.0001217410244862549,-9.8101034164428711,4.2680363549152389e-05,8
0.48971647024154663,-75.942939758300781,-0.094666190445423126,0.00022706711024511606,-38.872421264648438,-5.9918569604633376e-05,-0.00018496021220926195,-9.8101034164428711,4.9092737754108384e-05,8
1.7670737504959106,-75.673110961914062,-0.12777183949947357,0.25827968120574951,-38.817157745361328,-0.0036069010384380817,-9.387730824528262e-05,-9.8101034164428711,0.0018218763871118426,8
2.1283278465270996,-75.821495056152344,-0.12808147072792053,0.26787519454956055,-38.826828002929688,-0.003316046204417944,-0.002212822437286377,-9.8080434799194336,0.0017395660979673266,8
-2.1283278465270996,-75.821502685546875,0.12808087468147278,-0.26787534356117249,-38.826831817626953,0.0033160313032567501,0.002212822437286377,-9.8080434799194336,-0.0017395451432093978,8
-1.7670741081237793,-75.673133850097656,0.12777087092399597,-0.2582797110080719,-38.817161560058594,0.0036068344488739967,9.387730824528262e-05,-9.8101034164428711,-0.0018218763871118426,8
-0.48971685767173767,-75.942947387695312,0.094665996730327606,-0.00022737981635145843,-38.872421264648438,6.0064776334911585e-05,0.0001849580294219777,-9.8101034164428711,-4.9090445827459916e-05,8
-0.28013724088668823,-75.994285583496094,0.090940661728382111,-0.00014981729327701032,-38.872463226318359,5.2423467423068359e-05,0.00012174233415862545,-9.8101034164428711,-4.2678180761868134e-05,8
-0.089609690010547638,-76.022186279296875,0.08960840106010437,-4.9275633500656113e-05,-38.872489929199219,4.9191981815965846e-05,3.9943475712789223e-05,-9.8101034164428711,-3.9943257434060797e-05,8
0.089609302580356598,-76.022193908691406,0.089609421789646149,4.8973684897646308e-05,-38.872489929199219,4.919457933283411e-05,-3.9954389649210498e-05,-9.8101034164428711,-3.9945331081980839e-05,8
0.28013494610786438,-75.994293212890625,0.090941168367862701,0.00014951388584449887,-38.872463226318359,5.2430466894293204e-05,-0.00012175150186521932,-9.8101034164428711,-4.268396514817141e-05,8
0.48971664905548096,-75.942939758300781,0.094666808843612671,0.00022708222968503833,-38.872421264648438,6.0076352383475751e-05,-0.00018497199926059693,-9.8101034164428711,-4.9100050091510639e-05,8
1.7670732736587524,-75.673110961914062,0.12777017056941986,0.25827968120574951,-38.817157745361328,0.0036065778695046902,-9.387730824528262e-05,-9.8101034164428711,-0.0018218344775959849,8
2.1283257007598877,-75.821495056152344,0.12807998061180115,0.26787501573562622,-38.826828002929688,0.0033157877624034882,-0.002212822437286377,-9.8080434799194336,-0.0017395451432093978,8
-2.1136934757232666,-75.82470703125,0.39023226499557495,-0.26718389987945557,-38.826251983642578,0.0097389640286564827,0.0018560885218903422,-9.8083868026733398,-0.0050903013907372952,8
-1.7632683515548706,-75.677101135253906,0.38808658719062805,-0.25822821259498596,-38.817264556884766,0.010353194549679756,-1.6093254089355469e-05,-9.8101034164428711,-0.0052451151423156261,8
-0.49763229489326477,-75.904914855957031,0.28865358233451843,-0.00023958670499268919,-38.872371673583984,0.00017441916861571372,0.00019553712627384812,-9.8101034164428711,-0.00014280709729064256,8
-0.28286471962928772,-75.963836669921875,0.28286436200141907,-0.00015686664846725762,-38.872428894042969,0.00015678741328883916,0.00012782620615325868,-9.8101034164428711,-0.00012782969861291349,8
-0.090941183269023895,-75.994285583496094,0.2801368236541748,-5.2495870477287099e-05,-38.872463226318359,0.00014972688222769648,4.2669340473366901e-05,-9.8101034164428711,-0.00012173665891168639,8
0.090940952301025391,-75.994293212890625,0.28013697266578674,5.2219900680938736e-05,-38.872463226318359,0.00014972854114603251,-4.2701209167717025e-05,-9.8101034164428711,-0.00012173840514151379,8
0.28286436200141907,-75.963844299316406,0.28286528587341309,0.00015659195196349174,-38.872428894042969,0.00015679480566177517,-0.00012785894796252251,-9.8101034164428711,-0.00012783624697476625,8
0.49763274192810059,-75.904914855957031,0.28865465521812439,0.00023931868781801313,-38.872371673583984,0.00017443140677642077,-0.0001955746702151373,-9.8101034164428711,-0.00014281757466960698,8
1.7632665634155273,-75.677085876464844,0.38808572292327881,0.25822824239730835,-38.8172607421875,0.010353009216487408,1.6093254089355469e-05,-9.8101034164428711,-0.0052452548407018185,8
2.1136898994445801,-75.824691772460938,0.39023128151893616,0.26718348264694214,-38.826248168945312,0.0097387153655290604,-0.0018560885218903422,-9.8083868026733398,-0.0050902734510600567,8
-2.0775110721588135,-75.836891174316406,0.66998130083084106,-0.26594936847686768,-38.825168609619141,0.014871841296553612,0.0012767313746735454,-9.8086156845092773,-0.0077793835662305355,8
-1.7502729892730713,-75.690521240234375,0.67487305402755737,-0.25815162062644958,-38.817363739013672,0.016013950109481812,-0.0001931190345203504,-9.8099889755249023,-0.0080812722444534302,8
-0.51490277051925659,-75.828628540039062,0.51490283012390137,-0.00026529634487815201,-38.872325897216797,0.00026522192638367414,0.00021751124586444348,-9.8101034164428711,-0.0002175199770135805,8
-0.2886539101600647,-75.904914855957031,0.49763280153274536,-0.00017448980361223221,-38.872371673583984,0.00023950399190653116,0.00014279618335422128,-9.8101034164428711,-0.00019553799938876182,8
