x,y,z,vx,vy,vz,ax,ay,az,mass
-1.576063871383667,-78.533950805664062,-1.5760620832443237,-0.18146489560604095,-39.220535278320312,-0.18146449327468872,-0.00035673376987688243,-9.8097600936889648,-0.00035673376987688243,8
-1.3028301000595093,-78.581459045410156,-1.6108561754226685,-0.18095462024211884,-39.220954895019531,-0.18108995258808136,-0.0013174115447327495,-9.8090734481811523,-0.0010447204113006592,8
-0.62965524196624756,-78.70361328125,-1.7523573637008667,-0.010322978720068932,-39.257579803466797,-0.23085032403469086,0.0065986248664557934,-9.8096456527709961,-0.0014962254790589213,8
-0.36641675233840942,-78.700935363769531,-1.7924212217330933,-0.0069555514492094517,-39.257358551025391,-0.23149670660495758,0.0044475635513663292,-9.8097600936889648,-0.00062316650291904807,8
-0.11998359858989716,-78.694892883300781,-1.8138943910598755,-0.0023511499166488647,-39.2572021484375,-0.23201967775821686,0.0015242908848449588,-9.8101034164428711,3.0398367016459815e-05,8
0.12018246948719025,-78.694892883300781,-1.8138983249664307,0.0024329605512320995,-39.2572021484375,-0.2320198267698288,-0.0015225935494527221,-9.8101034164428711,3.1292438507080078e-05,8
0.36665129661560059,-78.700935363769531,-1.7924283742904663,0.0070405337028205395,-39.257358551025391,-0.23149678111076355,-0.0044481921941041946,-9.8097600936889648,-0.00062271946808323264,8
0.62995696067810059,-78.703620910644531,-1.752354621887207,0.010412590578198433,-39.257579803466797,-0.23084951937198639,-0.006602815818041563,-9.8096456527709961,-0.0014971195487305522,8
1.302884578704834,-78.581512451171875,-1.6108647584915161,0.18096821010112762,-39.220973968505859,-0.18109077215194702,0.0013160704402253032,-9.8090734481811523,-0.0010433793067932129,8
1.5761096477508545,-78.533988952636719,-1.5760663747787476,0.18147782981395721,-39.220554351806641,-0.1814647912979126,0.00035673376987688243,-9.8097600936889648,-0.00035718080471269786,8
-1.6108568906784058,-78.581459045410156,-1.3028292655944824,-0.18109032511711121,-39.220954895019531,-0.1809542179107666,-0.0010447204113006592,-9.8090734481811523,-0.0013174115447327495,8
-1.3108528852462769,-78.672279357910156,-1.3108515739440918,-0.17997434735298157,-39.221954345703125,-0.17997397482395172,-0.0025194881018251181,-9.8077001571655273,-0.0025194881018251181,8
-0.58612823486328125,-78.908164978027344,-1.1737703084945679,-0.0067668957635760307,-39.304763793945312,-0.11680549383163452,0.0045206393115222454,-9.8104467391967773,0.00069625669857487082,8
-0.32872855663299561,-78.921791076660156,-1.1165220737457275,-0.0038598794490098953,-39.305011749267578,-0.11635110527276993,0.0026951029431074858,-9.8099889755249023,-0.00016741453146096319,8
-0.1060183197259903,-78.92572021484375,-1.0849348306655884,-0.0010997982462868094,-39.305099487304688,-0.11613740026950836,0.00088911032071337104,-9.8097600936889648,-0.00057756894966587424,8
0.10773402452468872,-78.925727844238281,-1.084932804107666,0.001605435274541378,-39.305099487304688,-0.11613533645868301,-0.0008968635811470449,-9.8097600936889648,-0.00057823950191959739,8
0.33027815818786621,-78.921806335449219,-1.1165026426315308,0.0043580303899943829,-39.305015563964844,-0.11634411662817001,-0.0026974778156727552,-9.8099889755249023,-0.00016987322305794805,8
0.5874057412147522,-78.908195495605469,-1.1737011671066284,0.0072475504130125046,-39.304771423339844,-0.11679080873727798,-0.004511586856096983,-9.8104467391967773,0.00068753951927646995,8
1.3109405040740967,-78.672332763671875,-1.3108603954315186,0.17998889088630676,-39.221973419189453,-0.17997552454471588,0.0025176999624818563,-9.8077001571655273,-0.0025176999624818563,8
1.6109145879745483,-78.581512451171875,-1.3028349876403809,0.18110354244709015,-39.220973968505859,-0.18095475435256958,0.0010438263416290283,-9.8090734481811523,-0.001316964509896934,8
-1.7523552179336548,-78.70361328125,-0.62965220212936401,-0.23084945976734161,-39.257575988769531,-0.010322488844394684,-0.0014957784442231059,-9.8096456527709961,0.0065985131077468395,8
-1.1737726926803589,-78.908157348632812,-0.58612531423568726,-0.116806261241436,-39.304763793945312,-0.0067666200920939445,0.00069625669857487082,-9.8104467391967773,0.0045206253416836262,8
-0.5082709789276123,-79.054244995117188,-0.50828063488006592,1.3021775885135867e-05,-39.345451354980469,7.8272805694723502e-06,0.0015854076482355595,-9.8094167709350586,0.0015850297641009092,8
-0.28075948357582092,-79.034431457519531,-0.50025779008865356,0.0006814732332713902,-39.345363616943359,8.6348896729759872e-05,0.0010864518117159605,-9.8097600936889648,0.0015475524123758078,8
-0.087955959141254425,-79.025932312011719,-0.49918344616889954,0.0015851885545998812,-39.345329284667969,0.000103131947980728,0.00039608331280760467,-9.8097600936889648,0.0015481919981539249,8
0.098967060446739197,-79.025947570800781,-0.49919304251670837,0.0025374172255396843,-39.345298767089844,0.00010157613724004477,-0.00033568820799700916,-9.8097600936889648,0.0015493473038077354,8
0.29195225238800049,-79.03436279296875,-0.50026416778564453,0.0034515329170972109,-39.345272064208984,8.2483762525953352e-05,-0.0010360102169215679,-9.8096456527709961,0.0015506666386500001,8
0.51931357383728027,-79.054031372070312,-0.50826352834701538,0.0041268486529588699,-39.345310211181641,4.5551714720204473e-06,-0.0015398113755509257,-9.8094167709350586,0.0015881282743066549,8
1.1741282939910889,-78.909194946289062,-0.58608335256576538,0.11681897193193436,-39.305206298828125,-0.006761426106095314,-0.00070631498238071799,-9.8104467391967773,0.0045186975039541721,8
1.7522525787353516,-78.703964233398438,-0.62959736585617065,0.2307705283164978,-39.257713317871094,-0.010312243364751339,0.0014904140261933208,-9.8095312118530273,0.006592645775526762,8
-1.7924182415008545,-78.700920104980469,-0.366414874792099,-0.23149566352367401,-39.257354736328125,-0.0069551588967442513,-0.00062316650291904807,-9.8097600936889648,0.0044474797323346138,8
-1.1165237426757812,-78.921775817871094,-0.32872769236564636,-0.11635203659534454,-39.305011749267578,-0.0038596901576966047,-0.0001676380488788709,-9.8099889755249023,0.0026950959581881762,8
-0.50024658441543579,-79.034431457519531,-0.28077134490013123,9.15882847039029e-05,-39.345363616943359,0.00067614635918289423,0.001547889900393784,-9.8097600936889648,0.0010861566988751292,8
-0.28464215993881226,-79.048828125,-0.28465366363525391,0.00070451525971293449,-39.345420837402344,0.00069917988730594516,0.0010743417078629136,-9.8094167709350586,0.0010740483412519097,8
-0.08550841361284256,-79.052200317382812,-0.28822016716003418,0.0016113477759063244,-39.345455169677734,0.00069442926906049252,0.00037843940663151443,-9.8094167709350586,0.0010824913624674082,8
0.096707604825496674,-79.052276611328125,-0.28820472955703735,0.0025065217632800341,-39.345424652099609,0.00069306581281125546,-0.00030979511211626232,-9.8094167709350586,0.0010835530702024698,8
0.29630181193351746,-79.048912048339844,-0.28465977311134338,0.0034308065660297871,-39.345317840576172,0.00069552002241834998,-0.0010250159539282322,-9.8094167709350586,0.0010769942309707403,8
0.51232725381851196,-79.034194946289062,-0.28078186511993408,0.0040655811317265034,-39.34521484375,0.00067328417208045721,-0.0015241791261360049,-9.8097600936889648,0.0010891497367992997,8
1.1168298721313477,-78.923095703125,-0.32866737246513367,0.11635733395814896,-39.305465698242188,-0.0038523431867361069,0.00017322598432656378,-9.8099889755249023,0.0026921413373202085,8
1.7923625707626343,-78.70123291015625,-0.36638429760932922,0.2314174622297287,-39.257492065429688,-0.0069485711865127087,0.00060752028366550803,-9.8097600936889648,0.0044436939060688019,8
-1.8138890266418457,-78.694892883300781,-0.11998256295919418,-0.23201800882816315,-39.257198333740234,-0.002350902883335948,3.0398367016459815e-05,-9.8101034164428711,0.0015242838999256492,8
-1.0849368572235107,-78.925704956054688,-0.10601790994405746,-0.11613848805427551,-39.305095672607422,-0.0010996102355420589,-0.00057801598450168967,-9.8097600936889648,0.00088908587349578738,8
-0.4991709291934967,-79.025932312011719,-0.087968721985816956,0.00010840809409273788,-39.345329284667969,0.0015796982916072011,0.001548497355543077,-9.8097600936889648,0.00039588424260728061,8
-0.28820893168449402,-79.052200317382812,-0.085521139204502106,0.00069978111423552036,-39.345455169677734,0.0016058547189459205,0.0010827725054696202,-9.8094167709350586,0.00037822985905222595,8
-0.086854927241802216,-79.065208435058594,-0.086867712438106537,0.0016111216973513365,-39.34552001953125,0.0016056206077337265,0.00038077586214058101,-9.8094167709350586,0.00038056980702094734,8
0.098146967589855194,-79.065292358398438,-0.086864486336708069,0.0025030167307704687,-39.345489501953125,0.0016048937104642391,-0.00030593245173804462,-9.8094167709350586,0.00038128226879052818,8
0.30011168122291565,-79.052467346191406,-0.085551820695400238,0.0034360252320766449,-39.345344543457031,0.0016032097628340125,-0.0010332721285521984,-9.8094167709350586,0.00038074093754403293,8
0.5118294358253479,-79.02581787109375,-0.088020719587802887,0.004057182464748621,-39.345161437988281,0.001576622249558568,-0.0015357880620285869,-9.8097600936889648,0.00039932431536726654,8
1.0852190256118774,-78.927268981933594,-0.10597983002662659,0.11614143848419189,-39.305557250976562,-0.001093499013222754,0.00058963889023289084,-9.8097600936889648,0.00088726630201563239,8
1.8138507604598999,-78.6951904296875,-0.11997441947460175,0.23193840682506561,-39.257335662841797,-0.0023493610788136721,-5.4091211495688185e-05,-9.8101034164428711,0.001522977720014751,8
-1.813889741897583,-78.69488525390625,0.12018259614706039,-0.23201759159564972,-39.257198333740234,0.0024330948945134878,3.0398367016459815e-05,-9.8101034164428711,-0.0015225516399368644,8
-1.0849355459213257,-78.92572021484375,0.10773377120494843,-0.1161365807056427,-39.305099487304688,0.0016056206077337265,-0.00057823950191959739,-9.8097600936889648,-0.00089675182243809104,8
-0.49918001890182495,-79.025947570800781,0.098952688276767731,0.0001068803685484454,-39.345298767089844,0.0025317233521491289,0.0015496293781325221,-9.8097600936889648,-0.0003357510722707957,8
-0.28819084167480469,-79.052276611328125,0.096693508327007294,0.0006984492065384984,-39.345424652099609,0.002500840462744236,0.0010838080197572708,-9.8094167709350586,-0.00030987194622866809,8
-0.086851023137569427,-79.065299987792969,0.098132520914077759,0.0016104131937026978,-39.345489501953125,0.0024973338004201651,0.00038147086161188781,-9.8094167709350586,-0.00030602325568906963,8
0.098093658685684204,-79.065589904785156,0.09807933121919632,0.0025027571246027946,-39.345458984375,0.0024970686063170433,-0.0003053596883546561,-9.8094167709350586,-0.00030544350738637149,8
0.30005979537963867,-79.052940368652344,0.09660753607749939,0.0034347546752542257,-39.345317840576172,0.0024995151907205582,-0.0010316795669496059,-9.8094167709350586,-0.00030794410849921405,8
0.51178395748138428,-79.026191711425781,0.098862156271934509,0.0040553263388574123,-39.345138549804688,0.0025273207575082779,-0.0015335668576881289,-9.8097600936889648,-0.00033222368801943958,8
1.0852327346801758,-78.927337646484375,0.10771190375089645,0.11614115536212921,-39.305561065673828,0.0016079923370853066,0.0005889683379791677,-9.8097600936889648,-0.00089570408454164863,8
1.8138402700424194,-78.695205688476562,0.12016928195953369,0.23193413019180298,-39.257339477539062,0.0024294222239404917,-5.2750106988241896e-05,-9.8101034164428711,-0.0015212943544611335,8
-1.792414665222168,-78.700920104980469,0.36665040254592896,-0.23149383068084717,-39.257354736328125,0.007040572352707386,-0.0006236135377548635,-9.8097600936889648,-0.0044481363147497177,8
-1.11650550365448,-78.921798706054688,0.3302777111530304,-0.11634554713964462,-39.305015563964844,0.0043581877835094929,-0.00016987322305794805,-9.8099889755249023,-0.0026974917855113745,8
-0.50025045871734619,-79.034370422363281,0.29193621873855591,8.7799926404841244e-05,-39.34527587890625,0.0034456395078450441,0.0015509113436564803,-9.8097600936889648,-0.0010358984582126141,8
-0.28464630246162415,-79.048912048339844,0.29628476500511169,0.00070091855013743043,-39.345321655273438,0.0034248987212777138,0.0010772334644570947,-9.8094167709350586,-0.0010249391198158264,8
-0.085538566112518311,-79.052467346191406,0.30009400844573975,0.0016087491530925035,-39.345344543457031,0.0034300996921956539,0.00038090508314780891,-9.8094167709350586,-0.001033188309520483,8
0.096621803939342499,-79.052940368652344,0.30004298686981201,0.0025052214041352272,-39.345317840576172,0.0034288312308490276,-0.00030788124422542751,-9.8094167709350586,-0.0010315887629985809,8
0.29619181156158447,-79.049942016601562,0.29617556929588318,0.0034272738266736269,-39.345226287841797,0.0034213613253086805,-0.0010208808816969395,-9.8094167709350586,-0.0010207970626652241,8
0.51219683885574341,-79.035026550292969,0.29180422425270081,0.0040604192763566971,-39.345138549804688,0.0034389295615255833,-0.0015185632510110736,-9.8097600936889648,-0.0010299822315573692,8
1.1168473958969116,-78.923301696777344,0.33023220300674438,0.11635573208332062,-39.305477142333984,0.0043591335415840149,0.0001721083972370252,-9.8101034164428711,-0.0026949213352054358,8
1.7923322916030884,-78.7012939453125,0.36661377549171448,0.23140455782413483,-39.257499694824219,0.0070318491198122501,0.00061288470169529319,-9.8097600936889648,-0.0044443365186452866,8
-1.7523378133773804,-78.70361328125,0.62995541095733643,-0.23084603250026703,-39.257575988769531,0.010412567295134068,-0.0014980136184021831,-9.8095312118530273,-0.0066026761196553707,8
-1.1737048625946045,-78.908195495605469,0.58740586042404175,-0.11679249256849289,-39.304771423339844,0.0072478232905268669,0.00068776303669437766,-9.8104467391967773,-0.0045116147957742214,8
-0.5082513689994812,-79.054039001464844,0.51929676532745361,9.8424443422118202e-06,-39.345314025878906,0.0041208215989172459,0.0015884314198046923,-9.8094167709350586,-0.0015396856470033526,8
-0.28076934814453125,-79.034202575683594,0.51230728626251221,0.00067867885809391737,-39.34521484375,0.0040595093742012978,0.0010893889702856541,-9.8097600936889648,-0.0015239835483953357,8
-0.088007651269435883,-79.02581787109375,0.51180964708328247,0.0015821728156879544,-39.345161437988281,0.0040510776452720165,0.00039947099867276847,-9.8097600936889648,-0.0015355505747720599,8
0.098876155912876129,-79.026191711425781,0.51176542043685913,0.0025330476928502321,-39.345138549804688,0.0040492205880582333,-0.0003321887634228915,-9.8097600936889648,-0.001533329370431602,8
0.29181966185569763,-79.035026550292969,0.5121799111366272,0.0034448439255356789,-39.345138549804688,0.0040543391369283199,-0.0010300520807504654,-9.8097600936889648,-0.0015183537034317851,8
0.51914894580841064,-79.054710388183594,0.51913321018218994,0.0041186478920280933,-39.345195770263672,0.0041125966235995293,-0.0015321559039875865,-9.8094167709350586,-0.0015319882659241557,8
1.1741061210632324,-78.909408569335938,0.58737319707870483,0.11681344360113144,-39.305229187011719,0.0072503206320106983,-0.0007034092559479177,-9.8104467391967773,-0.0045095193199813366,8
1.7521919012069702,-78.704071044921875,0.62989348173141479,0.23075078427791595,-39.257724761962891,0.010400152765214443,0.0014998017577454448,-9.8095312118530273,-0.0065966132096946239,8
-1.6108580827713013,-78.581504821777344,1.3028769493103027,-0.18108914792537689,-39.220970153808594,0.18096628785133362,-0.0010433793067932129,-9.8090734481811523,0.0013160704402253032,8
-1.3108536005020142,-78.672325134277344,1.3109302520751953,-0.17997385561466217,-39.221969604492188,0.17998696863651276,-0.0025181469973176718,-9.8077001571655273,0.0025176999624818563,8
-0.58608388900756836,-78.909194946289062,1.1741220951080322,-0.006761510856449604,-39.305206298828125,0.11681780219078064,0.0045187254436314106,-9.8104467391967773,-0.00070676201721653342,8
-0.32866775989532471,-78.923095703125,1.1168249845504761,-0.0038523832336068153,-39.305465698242188,0.11635610461235046,0.0026921553071588278,-9.8099889755249023,0.00017322598432656378,8
-0.1059797927737236,-78.927268981933594,1.0852137804031372,-0.0010934981983155012,-39.305557250976562,0.11614014953374863,0.00088725582463666797,-9.8097600936889648,0.00058963889023289084,8
0.10771210491657257,-78.927337646484375,1.0852274894714355,0.0016080180648714304,-39.305561065673828,0.11613979935646057,-0.00089571805438026786,-9.8097600936889648,0.0005889683379791677,8
0.330232173204422,-78.923301696777344,1.1168431043624878,0.0043591735884547234,-39.305477142333984,0.1163543164730072,-0.0026949213352054358,-9.8101034164428711,0.0001721083972370252,8
0.58737361431121826,-78.909408569335938,1.1741021871566772,0.0072504198178648949,-39.305229187011719,0.11681195348501205,-0.0045095612294971943,-9.8104467391967773,-0.00070318573853000998,8
1.3109426498413086,-78.672454833984375,1.3109452724456787,0.17998690903186798,-39.222003936767578,0.17998746037483215,0.0025145707186311483,-9.8077001571655273,0.0025145707186311483,8
1.6109158992767334,-78.581596374511719,1.3028872013092041,0.18110035359859467,-39.221004486083984,0.18096520006656647,0.0010402500629425049,-9.8090734481811523,0.0013133882312104106,8
-1.5760618448257446,-78.533981323242188,1.5761039257049561,-0.18146319687366486,-39.220550537109375,0.1814759373664856,-0.000356286735041067,-9.8097600936889648,0.000356286735041067,8
-1.3028274774551392,-78.581512451171875,1.6109063625335693,-0.18095305562019348,-39.220970153808594,0.18110156059265137,-0.0013165174750611186,-9.8090734481811523,0.0010433793067932129,8
-0.62959825992584229,-78.703964233398438,1.7522482872009277,-0.010312511585652828,-39.257713317871094,0.23077051341533661,0.0065927575342357159,-9.8095312118530273,0.0014913080958649516,8
-0.36638495326042175,-78.70123291015625,1.7923600673675537,-0.0069487621076405048,-39.257492065429688,0.23141768574714661,0.004443763755261898,-9.8097600936889648,0.00060752028366550803,8
-0.11997488141059875,-78.6951904296875,1.8138508796691895,-0.0023494560737162828,-39.257335662841797,0.2319389134645462,0.0015229986747726798,-9.8101034164428711,-5.4091211495688185e-05,8
0.12016917765140533,-78.695205688476562,1.8138427734375,0.0024294217582792044,-39.257339477539062,0.23193490505218506,-0.0015213153092190623,-9.8101034164428711,-5.2750106988241896e-05,8
0.36661413311958313,-78.7012939453125,1.7923363447189331,0.0070319413207471371,-39.257499694824219,0.23140557110309601,-0.0044444063678383827,-9.8097600936889648,0.00061243766685947776,8
0.6298944354057312,-78.704071044921875,1.7521981000900269,0.010400310158729553,-39.257724761962891,0.23075197637081146,-0.0065967808477580547,-9.8095312118530273,0.0014993547229096293,8
1.3028843402862549,-78.581596374511719,1.6109189987182617,0.18096464872360229,-39.221004486083984,0.18110086023807526,0.0013133882312104106,-9.8090734481811523,0.0010402500629425049,8
1.5761085748672485,-78.534072875976562,1.5761102437973022,0.18147358298301697,-39.220584869384766,0.18147410452365875,0.00035494563053362072,-9.8097600936889648,0.00035494563053362072,8
-1.671309232711792,-78.253623962402344,-1.6713067293167114,-0.1840059757232666,-39.218063354492188,-0.18400551378726959,0.004186481237411499,-9.8142232894897461,0.004186481237411499,8
-1.3657360076904297,-78.307365417480469,-1.7422271966934204,-0.18256959319114685,-39.219272613525391,-0.18292634189128876,0.00082612031837925315,-9.8111333847045898,0.0015096365241333842,8
-0.63724404573440552,-78.400238037109375,-2.0139460563659668,-0.010214426554739475,-39.247447967529297,-0.25570595264434814,0.0063919271342456341,-9.8104467391967773,0.00068128103157505393,8
-0.37025353312492371,-78.4041748046875,-2.0438766479492188,-0.0068589197471737862,-39.247592926025391,-0.25545546412467957,0.0042913388460874557,-9.8104467391967773,0.00070273870369419456,8
-0.12152004987001419,-78.403594970703125,-2.0571432113647461,-0.002353631192818284,-39.247718811035156,-0.255226731300354,0.0014820181531831622,-9.8104467391967773,0.00070542091270908713,8
0.12162410467863083,-78.403594970703125,-2.0571434497833252,0.0024020220153033733,-39.247718811035156,-0.2552262544631958,-0.0014805583050474524,-9.8104467391967773,0.00070542091270908713,8
0.37036287784576416,-78.404182434082031,-2.0438764095306396,0.0069074300117790699,-39.247596740722656,-0.25545415282249451,-0.0042902631685137749,-9.8104467391967773,0.00070273870369419456,8
0.63736236095428467,-78.400245666503906,-2.0139446258544922,0.01026318222284317,-39.247451782226562,-0.25570452213287354,-0.0063913404010236263,-9.8104467391967773,0.00067859882256016135,8
1.3657790422439575,-78.307388305664062,-1.7422386407852173,0.18258266150951385,-39.219287872314453,-0.18292708694934845,-0.00082612031837925315,-9.8111333847045898,0.0015096365241333842,8
1.6713392734527588,-78.253654479980469,-1.6713056564331055,0.18401651084423065,-39.21807861328125,-0.18400384485721588,-0.0041811168193817139,-9.8142232894897461,0.0041820108890533447,8
-1.7422274351119995,-78.307365417480469,-1.3657348155975342,-0.18292669951915741,-39.219272613525391,-0.18256908655166626,0.0015091894892975688,-9.8111333847045898,0.00082612031837925315,8
-1.4095348119735718,-78.398941040039062,-1.4095317125320435,-0.18092489242553711,-39.221046447753906,-0.18092450499534607,-0.0012834368972107768,-9.8088445663452148,-0.0012834368972107768,8
-0.57412320375442505,-78.665916442871094,-1.23769211769104,-0.0069810375571250916,-39.304744720458984,-0.11685052514076233,0.0046581863425672054,-9.8104467391967773,0.00078745180508121848,8
-0.31918215751647949,-78.688873291015625,-1.1351869106292725,-0.0038465636316686869,-39.305011749267578,-0.11635309457778931,0.0026917292270809412,-9.8099889755249023,-0.00016026197408791631,8
-0.1040717214345932,-78.697349548339844,-1.0909756422042847,-0.0011151815997436643,-39.305095672607422,-0.11614236980676651,0.00089936418225988746,-9.8097600936889648,-0.00056616956135258079,8
0.10573390871286392,-78.697357177734375,-1.0909702777862549,0.0016199823003262281,-39.305095672607422,-0.11614024639129639,-0.00090652372455224395,-9.8097600936889648,-0.00056684011360630393,8
0.32067155838012695,-78.688888549804688,-1.1351587772369385,0.0043444288894534111,-39.305015563964844,-0.11634612083435059,-0.0026937897782772779,-9.8099889755249023,-0.00016294418310280889,8
0.57530307769775391,-78.665962219238281,-1.2376117706298828,0.0074600577354431152,-39.304752349853516,-0.11683521419763565,-0.0046479045413434505,-9.8104467391967773,0.00077806407352909446,8
1.4095886945724487,-78.39898681640625,-1.4095405340194702,0.1809384822845459,-39.221061706542969,-0.18092533946037292,0.0012820957927033305,-9.8088445663452148,-0.0012829898623749614,8
1.7422738075256348,-78.307395935058594,-1.3657376766204834,0.18293897807598114,-39.219287872314453,-0.18256878852844238,-0.0015087424544617534,-9.8111333847045898,0.00082612031837925315,8
-2.0139360427856445,-78.400238037109375,-0.63723981380462646,-0.25570246577262878,-39.247447967529297,-0.010213941335678101,0.00068128103157505393,-9.8104467391967773,0.0063917874358594418,8
-1.237694263458252,-78.665916442871094,-0.57411998510360718,-0.11685128509998322,-39.304740905761719,-0.0069807125255465508,0.00078722828766331077,-9.8104467391967773,0.0046581304632127285,8
-0.44157767295837402,-78.802932739257812,-0.44158938527107239,0.00022511841962113976,-39.345130920410156,0.00021984781778883189,0.0014777604956179857,-9.8101034164428711,0.001477463636547327,8
-0.25129666924476624,-78.789947509765625,-0.45669025182723999,0.00081816315650939941,-39.344970703125,0.00013163842959329486,0.0010205438593402505,-9.8102178573608398,0.0015799726825207472,8
-0.078359030187129974,-78.790275573730469,-0.4556506872177124,0.0016457499004900455,-39.344982147216797,9.4409537268802524e-05,0.00035748115624301136,-9.8103322982788086,0.0016295748064294457,8
0.091000229120254517,-78.790283203125,-0.45569464564323425,0.0025012015830725431,-39.344963073730469,9.3121809186413884e-05,-0.00033387911389581859,-9.8103322982788086,0.0016300232382491231,8
0.26462447643280029,-78.789863586425781,-0.45676594972610474,0.003347867401316762,-39.344890594482422,0.00012639311898965389,-0.0010158587247133255,-9.8103322982788086,0.0015833813231438398,8
0.45512565970420837,-78.802444458007812,-0.44160327315330505,0.0039508529007434845,-39.344978332519531,0.00021441979333758354,-0.0014861113158985972,-9.8101034164428711,0.0014830204891040921,8
1.2381123304367065,-78.6668701171875,-0.57410454750061035,0.11686528474092484,-39.305183410644531,-0.006978197954595089,-0.00080019229790195823,-9.8104467391967773,0.0046579628251492977,8
2.0140597820281982,-78.400413513183594,-0.63722294569015503,0.25575965642929077,-39.247489929199219,-0.010209257714450359,-0.00067055219551548362,-9.8104467391967773,0.0063893287442624569,8
-2.0438642501831055,-78.4041748046875,-0.37025079131126404,-0.25545176863670349,-39.247592926025391,-0.0068585556000471115,0.00070363277336582541,-9.8104467391967773,0.0042913109064102173,8
-1.1351886987686157,-78.688865661621094,-0.3191809356212616,-0.11635401099920273,-39.305007934570312,-0.0038463417440652847,-0.00016026197408791631,-9.8099889755249023,0.0026918479707092047,8
-0.45667567849159241,-78.789939880371094,-0.25131082534790039,0.0001369314850308001,-39.344970703125,0.00081276270793750882,0.001580240554176271,-9.8102178573608398,0.0010203290730714798,8
-0.26262426376342773,-78.834182739257812,-0.26263764500617981,0.0007518986240029335,-39.345268249511719,0.00074653263436630368,0.0010561058297753334,-9.8097600936889648,0.0010558473877608776,8
-0.08075125515460968,-78.843948364257812,-0.27311962842941284,0.0016251197084784508,-39.345329284667969,0.00067430426133796573,0.00037019370938651264,-9.8097600936889648,0.0011154689127579331,8
0.092717006802558899,-78.844123840332031,-0.2730620801448822,0.0025013787671923637,-39.345298767089844,0.00067233317531645298,-0.00031398606370203197,-9.8097600936889648,0.0011169705539941788,8
0.27586698532104492,-78.834678649902344,-0.26266217231750488,0.0034031213726848364,-39.345161437988281,0.00074052682612091303,-0.0010324269533157349,-9.8097600936889648,0.0010606826981529593,8
0.47222757339477539,-78.789039611816406,-0.25134721398353577,0.0040737227536737919,-39.344764709472656,0.00080549734411761165,-0.0016343732131645083,-9.8104467391967773,0.0010279566049575806,8
1.135522723197937,-78.690162658691406,-0.3191378116607666,0.11635982245206833,-39.305465698242188,-0.0038425226230174303,0.00016428528761025518,-9.8101034164428711,0.002691715257242322,8
2.0439872741699219,-78.404327392578125,-0.37024083733558655,0.25550994277000427,-39.247638702392578,-0.006855617742985487,-0.00068932765861973166,-9.8104467391967773,0.0042896624654531479,8
-2.057133674621582,-78.403594970703125,-0.12151907384395599,-0.25522312521934509,-39.247718811035156,-0.0023534020874649286,0.00070542091270908713,-9.8104467391967773,0.0014820181531831622,8
-1.0909790992736816,-78.697334289550781,-0.10407152026891708,-0.11614345759153366,-39.305091857910156,-0.0011150402715429664,-0.00056661659618839622,-9.8097600936889648,0.00089928036322817206,8
-0.45563587546348572,-78.790275573730469,-0.07837357372045517,9.9733952083624899e-05,-39.344982147216797,0.00164021085947752,0.0016298062400892377,-9.8103322982788086,0.00035734495031647384,8
-0.27310654520988464,-78.843948364257812,-0.0807647705078125,0.0006796717643737793,-39.345329284667969,0.0016196084907278419,0.0011157256085425615,-9.8097600936889648,0.00037001210148446262,8
-0.082651644945144653,-78.85919189453125,-0.08266448974609375,0.0015998594462871552,-39.345466613769531,0.001594352419488132,0.00039130562799982727,-9.8094167709350586,0.00039111005025915802,8
0.094440080225467682,-78.8597412109375,-0.082626111805438995,0.002517081331461668,-39.345432281494141,0.0015930036315694451,-0.00032145294244401157,-9.8094167709350586,0.00039226256194524467,8
0.286497563123703,-78.844772338867188,-0.080818265676498413,0.0034751673229038715,-39.345211029052734,0.0016148267313838005,-0.0010909256525337696,-9.8097600936889648,0.00037410177174024284,8
0.47218123078346252,-78.789436340332031,-0.078466176986694336,0.0041203722357749939,-39.344745635986328,0.0016340430593118072,-0.0017007439164444804,-9.8104467391967773,0.0003631424333434552,8
1.0912629365921021,-78.698905944824219,-0.10403808951377869,0.11614673584699631,-39.305553436279297,-0.0011110943742096424,0.00057734543224796653,-9.8097600936889648,0.00089936418225988746,8
2.0572569370269775,-78.403671264648438,-0.12151676416397095,0.25528344511985779,-39.247760772705078,-0.0023529166355729103,-0.00068932765861973166,-9.8104467391967773,0.0014813825255259871,8
-2.0571324825286865,-78.403594970703125,0.12162425369024277,-0.2552226185798645,-39.247718811035156,0.0024021670687943697,0.00070542091270908713,-9.8104467391967773,-0.001480530365370214,8
-1.0909721851348877,-78.697349548339844,0.10573377460241318,-0.11614149808883667,-39.305095672607422,0.0016201036050915718,-0.00056684011360630393,-9.8097600936889648,-0.0009065027697943151,8
-0.4556790292263031,-78.790283203125,0.090983770787715912,9.8469594377093017e-05,-39.344963073730469,0.002495472552254796,0.0016302363947033882,-9.8103322982788086,-0.00033390705357305706,8
-0.27304661273956299,-78.844123840332031,0.092701837420463562,0.00067773100454360247,-39.345298767089844,0.0024956800043582916,0.0011172080412507057,-9.8097600936889648,-0.00031404892797581851,8
-0.082612313330173492,-78.8597412109375,0.094425491988658905,0.0015985288191586733,-39.345432281494141,0.0025113834999501705,0.00039244067738763988,-9.8094167709350586,-0.00032152279163710773,8
0.094310052692890167,-78.860397338867188,0.094296015799045563,0.0025154727045446634,-39.34539794921875,0.0025097692850977182,-0.00031979053164832294,-9.8094167709350586,-0.00031985339592210948,8
0.28642246127128601,-78.845489501953125,0.092534564435482025,0.0034736201632767916,-39.345184326171875,0.0024918438866734505,-0.0010889139957726002,-9.8097600936889648,-0.00031038184533827007,8
0.47219112515449524,-78.78997802734375,0.090851962566375732,0.0041177710518240929,-39.344738006591797,0.0024913146626204252,-0.0016965809045359492,-9.8104467391967773,-0.00033262881333939731,8
1.0912673473358154,-78.698974609375,0.10570742934942245,0.11614635586738586,-39.305557250976562,0.0016227352898567915,0.0005768983974121511,-9.8097600936889648,-0.00090591254411265254,8
2.0572612285614014,-78.403678894042969,0.12161864340305328,0.25528550148010254,-39.247760772705078,0.002400027122348547,-0.00068932765861973166,-9.8104467391967773,-0.0014800553908571601,8
-2.0438611507415771,-78.4041748046875,0.37036257982254028,-0.25545063614845276,-39.247596740722656,0.0069075245410203934,0.00070273870369419456,-9.8104467391967773,-0.0042902212589979172,8
-1.1351606845855713,-78.688888549804688,0.32067099213600159,-0.1163475438952446,-39.305015563964844,0.004344533197581768,-0.00016249714826699346,-9.8099889755249023,-0.0026937478687614202,8
-0.45675009489059448,-78.789863586425781,0.26460430026054382,0.0001317899877903983,-39.344890594482422,0.0033419036772102118,0.0015835596714168787,-9.8102178573608398,-0.0010157050564885139,8
-0.26264914870262146,-78.834678649902344,0.27584749460220337,0.00074595509795472026,-39.345161437988281,0.0033971734810620546,0.0010609062155708671,-9.8097600936889648,-0.0010323082096874714,8
-0.080804452300071716,-78.844764709472656,0.28647917509078979,0.0016203800914809108,-39.345211029052734,0.0034692098852247,0.00037424845504574478,-9.8097600936889648,-0.0010908138938248158,8
0.092550113797187805,-78.845497131347656,0.28640452027320862,0.0024975615087896585,-39.345184326171875,0.0034676459617912769,-0.00031033993582241237,-9.8097600936889648,-0.0010887742973864079,8
0.27572259306907654,-78.838905334472656,0.27570390701293945,0.0033980831503868103,-39.345062255859375,0.0033921357244253159,-0.0010265386663377285,-9.8097600936889648,-0.0010264129377901554,8
0.47221219539642334,-78.790245056152344,0.26448389887809753,0.0040704184211790562,-39.344696044921875,0.0033399816602468491,-0.0016282264841720462,-9.8103322982788086,-0.0010154466144740582,8
1.1355252265930176,-78.690330505371094,0.3206392228603363,0.11635813862085342,-39.305473327636719,0.0043478021398186684,0.00016361473535653204,-9.8099889755249023,-0.0026934125926345587,8
2.0440003871917725,-78.404342651367188,0.37034910917282104,0.25551599264144897,-39.247638702392578,0.0069028269499540329,-0.00069111579796299338,-9.8104467391967773,-0.0042886706069111824,8
-2.0139310359954834,-78.400245666503906,0.63736122846603394,-0.25570100545883179,-39.247451782226562,0.010263185948133469,0.00067949289223179221,-9.8104467391967773,-0.0063912565819919109,8
-1.2376167774200439,-78.66595458984375,0.57530379295349121,-0.11683692038059235,-39.30474853515625,0.0074603762477636337,0.00077806407352909446,-9.8104467391967773,-0.0046479604206979275,8
-0.44158995151519775,-78.802444458007812,0.45510372519493103,0.00021979326265864074,-39.344982147216797,0.0039447620511054993,0.0014832401648163795,-9.8101034164428711,-0.0014858598588034511,8
-0.25133213400840759,-78.789039611816406,0.47220286726951599,0.00081097730435431004,-39.344764709472656,0.0040675308555364609,0.0010281102731823921,-9.8104467391967773,-0.0016339960275217891,8
-0.078451298177242279,-78.789443969726562,0.47215574979782104,0.0016396448481827974,-39.344749450683594,0.0041140997782349586,0.00036321926745586097,-9.8104467391967773,-0.0017003946704789996,8
0.09086841344833374,-78.78997802734375,0.47216618061065674,0.0024970651138573885,-39.344738006591797,0.0041115242056548595,-0.00033266373793594539,-9.8104467391967773,-0.0016962735680863261,8
0.26450246572494507,-78.790252685546875,0.47218850255012512,0.0033459127880632877,-39.344699859619141,0.0040642130188643932,-0.0010155793279409409,-9.8104467391967773,-0.0016278492985293269,8
0.45504489541053772,-78.803291320800781,0.45502486824989319,0.0039462302811443806,-39.344841003417969,0.0039401398971676826,-0.0014814453897997737,-9.8101034164428711,-0.0014811799628660083,8
1.2380871772766113,-78.667060852050781,0.57530289888381958,0.11685944348573685,-39.305206298828125,0.0074655604548752308,-0.0007968395366333425,-9.8104467391967773,-0.0046476810239255428,8
2.0140781402587891,-78.400436401367188,0.63733977079391479,0.25576865673065186,-39.247489929199219,0.010256554000079632,-0.0006732344045303762,-9.8104467391967773,-0.0063887140713632107,8
-1.7422283887863159,-78.307380676269531,1.3657717704772949,-0.18292519450187683,-39.219284057617188,0.18258039653301239,0.0015096365241333842,-9.8111333847045898,-0.00082612031837925315,8
-1.409534215927124,-78.398979187011719,1.4095814228057861,-0.1809237152338028,-39.221057891845703,0.18093658983707428,-0.0012820957927033305,-9.8088445663452148,0.0012820957927033305,8
-0.57410645484924316,-78.6668701171875,1.2381079196929932,-0.0069783097133040428,-39.305183410644531,0.11686412990093231,0.0046580466441810131,-9.8104467391967773,-0.00080019229790195823,8
-0.31913819909095764,-78.690162658691406,1.1355177164077759,-0.0038425538223236799,-39.305465698242188,0.11635859310626984,0.002691715257242322,-9.8101034164428711,0.00016428528761025518,8
-0.10403811186552048,-78.698905944824219,1.0912566184997559,-0.0011110914638265967,-39.305553436279297,0.11614544689655304,0.00089936418225988746,-9.8097600936889648,0.00057734543224796653,8
0.10570740699768066,-78.698974609375,1.0912624597549438,0.0016227578744292259,-39.305557250976562,0.11614499986171722,-0.00090592302149161696,-9.8097600936889648,0.0005768983974121511,8
0.32063886523246765,-78.690330505371094,1.1355201005935669,0.0043478324078023434,-39.305473327636719,0.11635672301054001,-0.0026933986227959394,-9.8099889755249023,0.00016383825277443975,8
0.57530301809310913,-78.667060852050781,1.2380836009979248,0.007465665228664875,-39.305206298828125,0.11685796082019806,-0.0046477229334414005,-9.8104467391967773,-0.00079661601921543479,8
1.4095923900604248,-78.399055480957031,1.4095942974090576,0.18093559145927429,-39.221092224121094,0.18093612790107727,0.0012794135836884379,-9.8088445663452148,0.0012794135836884379,8
1.7422744035720825,-78.307441711425781,1.3657758235931396,0.18293310701847076,-39.219322204589844,0.18257634341716766,-0.0015096365241333842,-9.8111333847045898,-0.00082612031837925315,8
-1.6712980270385742,-78.253654479980469,1.6713297367095947,-0.18400168418884277,-39.21807861328125,0.1840139776468277,0.0041815638542175293,-9.8142232894897461,-0.0041806697845458984,8
-1.3657321929931641,-78.307388305664062,1.7422645092010498,-0.18256707489490509,-39.219284057617188,0.18293692171573639,0.00082612031837925315,-9.8111333847045898,-0.0015087424544617534,8
-0.63722336292266846,-78.400413513183594,2.0140533447265625,-0.010209415107965469,-39.247489929199219,0.25575903058052063,0.0063894125632941723,-9.8104467391967773,-0.00067055219551548362,8
-0.3702411949634552,-78.404327392578125,2.0439827442169189,-0.0068557360209524632,-39.247638702392578,0.25550949573516846,0.0042897043749690056,-9.8104467391967773,-0.00068932765861973166,8
-0.1215168759226799,-78.403671264648438,2.0572545528411865,-0.0023529748432338238,-39.247760772705078,0.2552831768989563,0.001481403480283916,-9.8104467391967773,-0.00068932765861973166,8
0.12161863595247269,-78.403678894042969,2.0572617053985596,0.0024000131525099277,-39.247760772705078,0.25528553128242493,-0.0014800763456150889,-9.8104467391967773,-0.00068932765861973166,8
0.3703492283821106,-78.404342651367188,2.044003963470459,0.006902849767357111,-39.247638702392578,0.25551623106002808,-0.0042886845767498016,-9.8104467391967773,-0.00069200986763462424,8
0.63734018802642822,-78.400436401367188,2.014085054397583,0.010256600566208363,-39.247489929199219,0.2557690441608429,-0.0063887699507176876,-9.8104467391967773,-0.0006732344045303762,8
1.3657737970352173,-78.307441711425781,1.7422772645950317,0.1825757771730423,-39.219322204589844,0.18293356895446777,-0.00082612031837925315,-9.8111333847045898,-0.0015096365241333842,8
1.6713123321533203,-78.253768920898438,1.6713130474090576,0.18400339782238007,-39.218120574951172,0.18400387465953827,-0.0041659176349639893,-9.8141088485717773,-0.0041659176349639893,8
-1.9216128587722778,-77.799934387207031,-1.9216022491455078,-0.27514466643333435,-39.124114990234375,-0.27513927221298218,-0.0065580005757510662,-9.7998037338256836,-0.0065571065060794353,8
-1.5920714139938354,-77.793846130371094,-2.1237192153930664,-0.24967840313911438,-39.118309020996094,-0.31363773345947266,0.0017219780711457133,-9.8008337020874023,-0.013491510413587093,8
-0.6507604718208313,-77.816551208496094,-2.7649662494659424,-0.015176613815128803,-39.127357482910156,-0.49958732724189758,0.005581508856266737,-9.8026647567749023,-0.0081306695938110352,8
-0.38023439049720764,-77.819160461425781,-2.8022556304931641,-0.010020038112998009,-39.127765655517578,-0.49944064021110535,0.0036965867038816214,-9.8025503158569336,-0.007966160774230957,8
-0.12533852458000183,-77.820465087890625,-2.8180201053619385,-0.0034541264176368713,-39.127971649169922,-0.49941033124923706,0.0012799444375559688,-9.8025503158569336,-0.0078275799751281738,8
0.12534439563751221,-77.820465087890625,-2.8180205821990967,0.0034569907002151012,-39.127971649169922,-0.49941042065620422,-0.001279539312236011,-9.8025503158569336,-0.0078275799751281738,8
0.38023990392684937,-77.819160461425781,-2.8022568225860596,0.010022876784205437,-39.127765655517578,-0.49944087862968445,-0.0036961955484002829,-9.8025503158569336,-0.007966160774230957,8
0.65076595544815063,-77.816551208496094,-2.7649679183959961,0.015179432928562164,-39.127357482910156,-0.49958768486976624,-0.0055811177007853985,-9.8026647567749023,-0.0081306695938110352,8
1.5920766592025757,-77.793853759765625,-2.1237289905548096,0.24968010187149048,-39.118309020996094,-0.31363922357559204,-0.0017219780711457133,-9.8008337020874023,-0.013491510413587093,8
1.9216296672821045,-77.799919128417969,-1.9216153621673584,0.27515128254890442,-39.124107360839844,-0.27514562010765076,0.0065571065060794353,-9.7998037338256836,-0.0065571065060794353,8
-2.1237115859985352,-77.793846130371094,-1.5920727252960205,-0.31363293528556824,-39.118312835693359,-0.24968089163303375,-0.013490616343915462,-9.8008337020874023,0.001720636966638267,8
-1.7263424396514893,-77.825370788574219,-1.7263302803039551,-0.27327901124954224,-39.126609802246094,-0.27327415347099304,-0.0089719882234930992,-9.7975149154663086,-0.0089719882234930992,8
-0.51034855842590332,-77.997230529785156,-1.5520755052566528,-0.0024476717226207256,-39.197929382324219,-0.23778735101222992,0.0016877589514479041,-9.8098745346069336,-0.0018574296263977885,8
-0.29283899068832397,-78.013130187988281,-1.4740806818008423,-0.0015155443688854575,-39.198146820068359,-0.2371707409620285,0.0010724121239036322,-9.8097600936889648,-0.0025887785013765097,8
-0.096407473087310791,-78.022308349609375,-1.4384326934814453,-0.00044504826655611396,-39.198261260986328,-0.23682920634746552,0.00036426700535230339,-9.8094167709350586,-0.0030089912470430136,8
0.097075372934341431,-78.022308349609375,-1.4384031295776367,0.00065993954194709659,-39.198261260986328,-0.23682719469070435,-0.00036614245618693531,-9.8094167709350586,-0.0030103323515504599,8
0.29345095157623291,-78.013130187988281,-1.4739973545074463,0.0017284275963902473,-39.198146820068359,-0.23716440796852112,-0.001072087325155735,-9.8096456527709961,-0.0025928018148988485,8
0.51088643074035645,-77.997276306152344,-1.5519753694534302,0.0026579229161143303,-39.197933197021484,-0.23777672648429871,-0.0016843922203406692,-9.8098745346069336,-0.0018636881140992045,8
1.7263644933700562,-77.825347900390625,-1.7263480424880981,0.27328741550445557,-39.126602172851562,-0.27328193187713623,0.0089675178751349449,-9.7975149154663086,-0.0089684119448065758,8
2.1237297058105469,-77.793853759765625,-1.5920732021331787,0.31363734602928162,-39.118309020996094,-0.24968057870864868,0.013490616343915462,-9.8008337020874023,0.0017215310363098979,8
-2.7649505138397217,-77.816551208496094,-0.65075826644897461,-0.49958398938179016,-39.127357482910156,-0.015176146291196346,-0.0081306695938110352,-9.8026647567749023,0.005581508856266737,8
-1.5520857572555542,-77.997230529785156,-0.51034331321716309,-0.2377905547618866,-39.197929382324219,-0.0024469750933349133,-0.0018574296263977885,-9.8098745346069336,0.0016877589514479041,8
-0.3940509557723999,-78.417152404785156,-0.39408013224601746,-0.0033437851816415787,-39.310131072998047,-0.0033517489209771156,0.0026780946645885706,-9.8083868026733398,0.002677940996363759,8
-0.22589755058288574,-78.429985046386719,-0.38374751806259155,-0.0014368121046572924,-39.310333251953125,-0.0042487476021051407,0.0018460721476003528,-9.8080434799194336,0.002996739698573947,8
-0.063333407044410706,-78.423973083496094,-0.38925588130950928,0.0017080581746995449,-39.310287475585938,-0.0053250654600560665,0.00054150237701833248,-9.8080434799194336,0.0034319141414016485,8
0.087210126221179962,-78.423431396484375,-0.38944754004478455,0.0044065690599381924,-39.310283660888672,-0.0053555839695036411,-0.00057174352696165442,-9.8080434799194336,0.0034492367412894964,8
0.25261461734771729,-78.428665161132812,-0.38403701782226562,0.0076655964367091656,-39.310359954833984,-0.0043059419840574265,-0.0019167176214978099,-9.8080434799194336,0.0030278365593403578,8
0.42298123240470886,-78.416160583496094,-0.3938712477684021,0.0097301984205842018,-39.310207366943359,-0.0033093725796788931,-0.0028129105921834707,-9.8083868026733398,0.0026659828145056963,8
1.5520956516265869,-77.998443603515625,-0.51033002138137817,0.23771034181118011,-39.198371887207031,-0.0024473087396472692,0.0018310545710846782,-9.8098745346069336,0.0016883945791050792,8
2.7649784088134766,-77.816558837890625,-0.65075939893722534,0.49959221482276917,-39.127357482910156,-0.015176670625805855,0.0081324577331542969,-9.8026647567749023,0.0055813691578805447,8
-2.8022410869598389,-77.819160461425781,-0.38023248314857483,-0.49943739175796509,-39.127765655517578,-0.010019658133387566,-0.0079670548439025879,-9.8025503158569336,0.0036965867038816214,8
-1.4740915298461914,-78.013114929199219,-0.29283604025840759,-0.23717395961284637,-39.198143005371094,-0.0015148476231843233,-0.0025887785013765097,-9.8096456527709961,0.0010724121239036322,8
-0.38369512557983398,-78.429985046386719,-0.22592680156230927,-0.0042407750152051449,-39.310333251953125,-0.0014449189184233546,0.0029969073366373777,-9.8080434799194336,0.0018459918210282922,8
0.42375257611274719,-78.429298400878906,-0.22590787708759308,0.010718974284827709,-39.310482025146484,-0.0013545667752623558,-0.0031510086264461279,-9.8080434799194336,0.0018135224236175418,8
1.4740290641784668,-78.014549255371094,-0.29278972744941711,0.23708279430866241,-39.198593139648438,-0.0015138518065214157,0.0025708971079438925,-9.8096456527709961,0.0010721676517277956,8
2.8022663593292236,-77.819160461425781,-0.38023382425308228,0.49944591522216797,-39.127765655517578,-0.010020166635513306,0.0079679489135742188,-9.8025503158569336,0.0036965587642043829,8
-2.818004846572876,-77.820465087890625,-0.12533785402774811,-0.49940720200538635,-39.127971649169922,-0.0034538502804934978,-0.0078275799751281738,-9.8025503158569336,0.0012799863470718265,8
-1.4384427070617676,-78.022315979003906,-0.096405297517776489,-0.23683230578899384,-39.198261260986328,-0.00044437381438910961,-0.003009438281878829,-9.8094167709350586,0.0003642748633865267,8
-0.38922217488288879,-78.423973083496094,-0.06336066871881485,-0.0053171799518167973,-39.310287475585938,0.0016998940845951438,0.0034321376588195562,-9.8080434799194336,0.00054148142226040363,8
0.42973726987838745,-78.423988342285156,-0.063955828547477722,0.011781937442719936,-39.310470581054688,0.00168475357349962,-0.0035782342310994864,-9.8080434799194336,0.00054695410653948784,8
1.4383339881896973,-78.024040222167969,-0.096363388001918793,0.23673450946807861,-39.198707580566406,-0.00044343984336592257,0.0029964742716401815,-9.8094167709350586,0.00036391077446751297,8
2.8180303573608398,-77.820465087890625,-0.12533858418464661,0.49941575527191162,-39.127971649169922,-0.0034542521461844444,0.0078275799751281738,-9.8025503158569336,0.0012799514224752784,8
-2.8180055618286133,-77.820465087890625,0.12534485757350922,-0.49940729141235352,-39.127971649169922,0.003457225626334548,-0.0078275799751281738,-9.8025503158569336,-0.0012795183574780822,8
-1.4384104013442993,-78.022315979003906,0.097077712416648865,-0.2368302196264267,-39.198261260986328,0.00066060468088835478,-0.0030103323515504599,-9.8094167709350586,-0.0003661389637272805,8
-0.38941234350204468,-78.423439025878906,0.087178587913513184,-0.0053475452587008476,-39.310283660888672,0.0043980018235743046,0.0034494462888687849,-9.8080434799194336,-0.00057132443180307746,8
0.42990434169769287,-78.423744201660156,0.086490370333194733,0.011807629838585854,-39.310470581054688,0.0043120039626955986,-0.0035931540187448263,-9.8080434799194336,-0.00053748954087495804,8
1.4383065700531006,-78.024040222167969,0.097038976848125458,0.23673276603221893,-39.198707580566406,0.0006600117776542902,0.0029973683413118124,-9.8094167709350586,-0.00036570240627042949,8
2.8180313110351562,-77.820472717285156,0.12534399330615997,0.4994158148765564,-39.127975463867188,0.0034569378476589918,0.0078275799751281738,-9.8025503158569336,-0.0012794275535270572,8
-2.8022420406341553,-77.819160461425781,0.38024026155471802,-0.4994376003742218,-39.127765655517578,0.010023134760558605,-0.0079670548439025879,-9.8025503158569336,-0.0036961676087230444,8
-1.4740051031112671,-78.013130187988281,0.29345354437828064,-0.23716741800308228,-39.198146820068359,0.0017291025724261999,-0.0025928018148988485,-9.8096456527709961,-0.0010721012949943542,8
-0.38397690653800964,-78.428657531738281,0.25257322192192078,-0.004297714214771986,-39.310359954833984,0.0076563884504139423,0.0030277667101472616,-9.8080434799194336,-0.0019168293802067637,8
0.4238685667514801,-78.428947448730469,0.2516893744468689,0.010745711624622345,-39.310508728027344,0.0075077135115861893,-0.003169728210195899,-9.8080434799194336,-0.0018567590741440654,8
1.4739636182785034,-78.014556884765625,0.29341253638267517,0.23707735538482666,-39.198593139648438,0.0017284720670431852,0.0025744733866304159,-9.8096456527709961,-0.0010717380791902542,8
2.8022675514221191,-77.819160461425781,0.3802398145198822,0.49944612383842468,-39.127769470214844,0.010022931732237339,0.0079679489135742188,-9.8025503158569336,-0.0036963911261409521,8
-2.7649524211883545,-77.816551208496094,0.65076589584350586,-0.49958419799804688,-39.127357482910156,0.015179699286818504,-0.0081306695938110352,-9.8026647567749023,-0.0055810338817536831,8
-1.551982045173645,-77.997276306152344,0.51089006662368774,-0.23777972161769867,-39.197933197021484,0.0026586141902953386,-0.00186413514893502,-9.8098745346069336,-0.0016844201600179076,8
-0.39383798837661743,-78.416160583496094,0.42293190956115723,-0.003301392775028944,-39.310207366943359,0.0097202546894550323,0.0026660526636987925,-9.8083868026733398,-0.0028124356176704168,8
-0.22587914764881134,-78.429298400878906,0.42367434501647949,-0.001346781849861145,-39.310482025146484,0.010708511807024479,0.0018136900616809726,-9.8080434799194336,-0.0031503101345151663,8
-0.063927300274372101,-78.423973083496094,0.42967325448989868,0.001693083206191659,-39.310470581054688,0.011771456338465214,0.00054692267440259457,-9.8080434799194336,-0.0035773960407823324,8
0.086523264646530151,-78.423728942871094,0.4298393726348877,0.004321021493524313,-39.310470581054688,0.011797183193266392,-0.00053778290748596191,-9.8080434799194336,-0.0035923437681049109,8
0.25173568725585938,-78.428947448730469,0.42378103733062744,0.0075178439728915691,-39.310508728027344,0.010735158808529377,-0.0018572619883343577,-9.8080434799194336,-0.0031690297182649374,8
0.42259290814399719,-78.416007995605469,0.42253893613815308,0.0096470946446061134,-39.310276031494141,0.0096365734934806824,-0.002786814933642745,-9.8083868026733398,-0.002786032622680068,8
1.5520133972167969,-77.99847412109375,0.51087868213653564,0.2377011626958847,-39.198375701904297,0.0026592174544930458,0.0018364189891144633,-9.8098745346069336,-0.0016848043305799365,8
2.7649807929992676,-77.816558837890625,0.65076571702957153,0.49959248304367065,-39.127361297607422,0.01517950277775526,0.0081324577331542969,-9.8026647567749023,-0.0055810618214309216,8
-2.1237099170684814,-77.793846130371094,1.5920798778533936,-0.3136332631111145,-39.118312835693359,0.24968269467353821,-0.013490616343915462,-9.8008337020874023,-0.0017219780711457133,8
-1.7263489961624146,-77.825347900390625,1.7263513803482056,-0.27328470349311829,-39.126602172851562,0.2732832133769989,-0.0089684119448065758,-9.7975149154663086,0.0089666238054633141,8
-0.51033270359039307,-77.998443603515625,1.5520931482315063,-0.0024477366823703051,-39.198368072509766,0.23771032691001892,0.0016884504584595561,-9.8098745346069336,0.0018310545710846782,8
-0.29279080033302307,-78.014549255371094,1.4740276336669922,-0.0015142536722123623,-39.198589324951172,0.23708273470401764,0.0010721886064857244,-9.8096456527709961,0.0025708971079438925,8
-0.096364624798297882,-78.024040222167969,1.4383327960968018,-0.00044383859494701028,-39.198703765869141,0.23673443496227264,0.00036391426692716777,-9.8094167709350586,0.002996921306475997,8
0.097036696970462799,-78.024040222167969,1.4383059740066528,0.00065959955099970102,-39.198703765869141,0.23673266172409058,-0.0003657058987300843,-9.8094167709350586,0.0029973683413118124,8
0.29340946674346924,-78.014556884765625,1.4739624261856079,0.0017280504107475281,-39.198589324951172,0.23707722127437592,-0.0010717310942709446,-9.8096456527709961,0.0025749204214662313,8
0.51087558269500732,-77.99847412109375,1.5520116090774536,0.0026587971951812506,-39.198371887207031,0.23770101368427277,-0.0016847903607413173,-9.8098745346069336,0.0018364189891144633,8
1.7263885736465454,-77.8253173828125,1.7263853549957275,0.27330228686332703,-39.126594543457031,0.27330031991004944,0.0089558949694037437,-9.7975149154663086,0.0089558949694037437,8
2.1237332820892334,-77.793853759765625,1.5920804738998413,0.31364035606384277,-39.118312835693359,0.24968262016773224,0.013490616343915462,-9.8008337020874023,-0.0017228721408173442,8
-1.9216152429580688,-77.799934387207031,1.9216153621673584,-0.27514821290969849,-39.124111175537109,0.27514603734016418,-0.0065580005757510662,-9.7998037338256836,0.0065562124364078045,8
-1.592069149017334,-77.793846130371094,2.1237256526947021,-0.24967852234840393,-39.118309020996094,0.31363928318023682,0.0017219780711457133,-9.8008337020874023,0.013491510413587093,8
-0.65075880289077759,-77.816558837890625,2.764972448348999,-0.01517666969448328,-39.127361297607422,0.49959036707878113,0.0055813691578805447,-9.8026647567749023,0.008131563663482666,8
-0.3802330493927002,-77.819168090820312,2.8022570610046387,-0.010020093061029911,-39.127769470214844,0.49944388866424561,0.0036965308245271444,-9.8025503158569336,0.0079670548439025879,8
-0.12533797323703766,-77.820472717285156,2.8180227279663086,-0.0034541923087090254,-39.127975463867188,0.49941363930702209,0.0012799374526366591,-9.8025503158569336,0.0078275799751281738,8
0.1253436803817749,-77.820472717285156,2.8180217742919922,0.0034569164272397757,-39.127975463867188,0.49941369891166687,-0.0012795672519132495,-9.8025503158569336,0.0078275799751281738,8
0.38023921847343445,-77.819168090820312,2.8022582530975342,0.010022860020399094,-39.127769470214844,0.49944409728050232,-0.0036961676087230444,-9.8025503158569336,0.0079670548439025879,8
0.65076565742492676,-77.816558837890625,2.7649741172790527,0.01517950464040041,-39.127361297607422,0.499590665102005,-0.00558108976110816,-9.8026647567749023,0.008131563663482666,8
1.5920788049697876,-77.793853759765625,2.1237356662750244,0.24968115985393524,-39.118312835693359,0.31364235281944275,-0.0017228721408173442,-9.8008337020874023,0.013491510413587093,8
1.9216384887695312,-77.7999267578125,1.9216357469558716,0.27516129612922668,-39.124103546142578,0.27515915036201477,0.0065553183667361736,-9.7998037338256836,0.0065553183667361736,8
-1.9930741786956787,-77.525177001953125,-1.9930634498596191,-0.2809428870677948,-39.115310668945312,-0.28093838691711426,-0.0033134219702333212,-9.8032369613647461,-0.0033134219702333212,8
-1.6266897916793823,-77.52532958984375,-2.2176125049591064,-0.24796032905578613,-39.112136840820312,-0.32338711619377136,0.00094056123634800315,-9.8032369613647461,-0.0083819031715393066,8
-0.66045701503753662,-77.561576843261719,-2.8589367866516113,-0.016863785684108734,-39.122360229492188,-0.50475341081619263,0.0058634201996028423,-9.8040380477905273,-0.0061082835309207439,8
-0.38537943363189697,-77.565032958984375,-2.8993520736694336,-0.010874134488403797,-39.122806549072266,-0.50479626655578613,0.0037935373838990927,-9.8039236068725586,-0.0058382744900882244,8
-0.12700764834880829,-77.566612243652344,-2.9170594215393066,-0.0036967119667679071,-39.123023986816406,-0.50487726926803589,0.0013086734106764197,-9.8039236068725586,-0.0056415791623294353,8
0.12701408565044403,-77.566612243652344,-2.9170596599578857,0.0036998798605054617,-39.123023986816406,-0.50487738847732544,-0.0013083870289847255,-9.8039236068725586,-0.0056415791623294353,8
0.38538578152656555,-77.565032958984375,-2.8993532657623291,0.010877299122512341,-39.122806549072266,-0.50479656457901001,-0.0037932859268039465,-9.8039236068725586,-0.0058382744900882244,8
0.66046226024627686,-77.561576843261719,-2.8589391708374023,0.016866849735379219,-39.122360229492188,-0.50475394725799561,-0.0058632525615394115,-9.8040380477905273,-0.0061082835309207439,8
1.6266943216323853,-77.525321960449219,-2.2176189422607422,0.24796159565448761,-39.112133026123047,-0.32339009642601013,-0.00094100827118381858,-9.8032369613647461,-0.0083819031715393066,8
1.9930794239044189,-77.525177001953125,-1.9930704832077026,0.28094640374183655,-39.115306854248047,-0.28094190359115601,0.003314316039904952,-9.8032369613647461,-0.0033134219702333212,8
-2.2176046371459961,-77.52532958984375,-1.6266933679580688,-0.32338336110115051,-39.112140655517578,-0.24796244502067566,-0.0083819031715393066,-9.8032369613647461,0.00094056123634800315,8
-1.7965283393859863,-77.545616149902344,-1.7965143918991089,-0.27859565615653992,-39.118896484375,-0.27859103679656982,-0.0048583741299808025,-9.8015203475952148,-0.0048574800603091717,8
-0.51940804719924927,-77.782493591308594,-1.6030704975128174,-0.0027216300368309021,-39.197650909423828,-0.23904983699321747,0.0018798931268975139,-9.8101034164428711,-0.00061243766685947776,8
-0.30004701018333435,-77.802986145019531,-1.525349497795105,-0.0016813743859529495,-39.197975158691406,-0.23808868229389191,0.0011853825999423862,-9.8097600936889648,-0.0017796455649659038,8
-0.097759425640106201,-77.813446044921875,-1.4878902435302734,-0.00048129164497368038,-39.198146820068359,-0.23757368326187134,0.00038884257082827389,-9.8094167709350586,-0.0024712083395570517,8
0.098509743809700012,-77.8134765625,-1.487831711769104,0.0006972796400077641,-39.198150634765625,-0.2375713586807251,-0.0003946182259824127,-9.8094167709350586,-0.0024716553743928671,8
0.30068913102149963,-77.803054809570312,-1.5252059698104858,0.0018940611043944955,-39.197978973388672,-0.23808096349239349,-0.0011869646841660142,-9.8097600936889648,-0.0017836688784882426,8
0.5199507474899292,-77.782569885253906,-1.6029527187347412,0.002930821618065238,-39.197658538818359,-0.23903773725032806,-0.0018767010187730193,-9.8101034164428711,-0.00062003725906834006,8
1.7965377569198608,-77.545608520507812,-1.7965270280838013,0.27860051393508911,-39.118892669677734,-0.27859580516815186,0.0048574800603091717,-9.8015203475952148,-0.0048574800603091717,8
2.2176201343536377,-77.525321960449219,-1.6266933679580688,0.32338857650756836,-39.112133026123047,-0.24796201288700104,0.0083801150321960449,-9.8032369613647461,0.00094056123634800315,8
-2.8589210510253906,-77.561576843261719,-0.66045409440994263,-0.50475013256072998,-39.122360229492188,-0.016863210126757622,-0.0061082835309207439,-9.8040380477905273,0.0058634201996028423,8
-1.6030821800231934,-77.782493591308594,-0.51940351724624634,-0.23905311524868011,-39.197650909423828,-0.002720928518101573,-0.00061243766685947776,-9.8101034164428711,0.0018799001118168235,8
-0.42422637343406677,-78.22662353515625,-0.42425063252449036,-0.0038612254429608583,-39.309005737304688,-0.0038690036162734032,0.003159830579534173,-9.8095312118530273,0.0031595861073583364,8
-0.21897943317890167,-78.251754760742188,-0.39213782548904419,-0.0011214339174330235,-39.309474945068359,-0.0046835560351610184,0.0018328531878069043,-9.8090734481811523,0.0033701395150274038,8
-0.058273468166589737,-78.249488830566406,-0.39855626225471497,0.0019299465930089355,-39.309467315673828,-0.0055402806028723717,0.00048289538244716823,-9.8090734481811523,0.0037273622583597898,8
0.082282863557338715,-78.249504089355469,-0.39867636561393738,0.0042017614468932152,-39.309467315673828,-0.0055575370788574219,-0.0005318736657500267,-9.8090734481811523,0.0037371271755546331,8
0.24540060758590698,-78.251495361328125,-0.39243742823600769,0.0073536294512450695,-39.309490203857422,-0.0047300145961344242,-0.0019253509817644954,-9.8090734481811523,0.0033920861314982176,8
0.45099678635597229,-78.226837158203125,-0.42356020212173462,0.010200274176895618,-39.309089660644531,-0.0038145533762872219,-0.0032828280236572027,-9.8094167709350586,0.003129536984488368,8
1.603113055229187,-77.783668518066406,-0.51940912008285522,0.23897458612918854,-39.198089599609375,-0.0027221022173762321,0.00058874482056125998,-9.8101034164428711,0.0018809967441484332,8
2.8589468002319336,-77.56158447265625,-0.66045576333999634,0.50475847721099854,-39.122360229492188,-0.016863737255334854,0.0061100716702640057,-9.8040380477905273,0.0058634201996028423,8
-2.8993375301361084,-77.565032958984375,-0.38537827134132385,-0.50479292869567871,-39.122806549072266,-0.010873776860535145,-0.0058382744900882244,-9.8039236068725586,0.0037935932632535696,8
-1.525361180305481,-77.802986145019531,-0.30004444718360901,-0.23809188604354858,-39.197975158691406,-0.0016806985950097442,-0.0017796455649659038,-9.8097600936889648,0.001185403554700315,8
-0.39210933446884155,-78.251754760742188,-0.21900485455989838,-0.0046757622621953487,-39.309474945068359,-0.0011294169817119837,0.0033703490626066923,-9.8090734481811523,0.0018327204743400216,8
0.43297353386878967,-78.251663208007812,-0.21939185261726379,0.011158634908497334,-39.309547424316406,-0.0010636091465130448,-0.0035623086150735617,-9.8090734481811523,0.0018082697642967105,8
1.5253146886825562,-77.804374694824219,-0.3000410795211792,0.23799628019332886,-39.198421478271484,-0.0016812467947602272,0.0017738341121003032,-9.8097600936889648,0.0011861998355016112,8
2.8993632793426514,-77.565048217773438,-0.38537934422492981,0.50480097532272339,-39.122810363769531,-0.010874172672629356,0.0058382744900882244,-9.8039236068725586,0.0037935932632535696,8
-2.9170479774475098,-77.566627502441406,-0.12700733542442322,-0.50487327575683594,-39.123020172119141,-0.0036964789032936096,-0.0056415791623294353,-9.8039236068725586,0.0013087083352729678,8
-1.4879007339477539,-77.813446044921875,-0.097757458686828613,-0.23757687211036682,-39.198146820068359,-0.00048064143629744649,-0.0024712083395570517,-9.8094167709350586,0.00038886614493094385,8
-0.39852747321128845,-78.249488830566406,-0.058299180120229721,-0.0055324463173747063,-39.309467315673828,0.0019217433873564005,0.0037275718059390783,-9.8090734481811523,0.00048286045785062015,8
0.43909040093421936,-78.249755859375,-0.059121012687683105,0.012001720257103443,-39.309566497802734,0.0018919511931017041,-0.0039130076766014099,-9.8090734481811523,0.00049401191063225269,8
1.4878017902374268,-77.815078735351562,-0.097750864923000336,0.23746728897094727,-39.198604583740234,-0.00048049967153929174,0.0024855134543031454,-9.8094167709350586,0.00038899274659343064,8
2.9170746803283691,-77.566627502441406,-0.12700831890106201,0.50488215684890747,-39.123023986816406,-0.0036968069616705179,0.0056415791623294353,-9.8039236068725586,0.0013085895916447043,8
-2.9170486927032471,-77.566627502441406,0.12701460719108582,-0.50487327575683594,-39.123020172119141,0.0037000514566898346,-0.0056415791623294353,-9.8039236068725586,-0.0013083660742267966,8
-1.487842321395874,-77.813468933105469,0.09851229190826416,-0.23757457733154297,-39.198150634765625,0.00069797033211216331,-0.0024721024092286825,-9.8094167709350586,-0.0003946217184420675,8
-0.39864623546600342,-78.249504089355469,0.082252860069274902,-0.0055496064014732838,-39.309463500976562,0.004193207249045372,0.0037372948136180639,-9.8090734481811523,-0.00053178984671831131,8
0.43923464417457581,-78.24957275390625,0.081732854247093201,0.012014537118375301,-39.3095703125,0.0041315457783639431,-0.0039213616400957108,-9.8090734481811523,-0.00050846021622419357,8
1.487740159034729,-77.815093994140625,0.098499894142150879,0.23746539652347565,-39.198604583740234,0.00069826532853767276,0.0024868545588105917,-9.8094167709350586,-0.00039493429358117282,8
2.9170751571655273,-77.566627502441406,0.1270134449005127,0.50488227605819702,-39.123027801513672,0.0036996854469180107,0.0056415791623294353,-9.8039236068725586,-0.0013083171797916293,8
-2.899338960647583,-77.565040588378906,0.38538643717765808,-0.50479269027709961,-39.122806549072266,0.010877484455704689,-0.0058382744900882244,-9.8039236068725586,-0.003793257987126708,8
-1.5252156257629395,-77.803047180175781,0.3006928563117981,-0.23808413743972778,-39.197978973388672,0.0018947776407003403,-0.0017836688784882426,-9.8097600936889648,-0.0011869961163029075,8
-0.3924066424369812,-78.251495361328125,0.24536244571208954,-0.0047219344414770603,-39.309490203857422,0.0073444112204015255,0.0033921559806913137,-9.8090734481811523,-0.0019250576151534915,8
0.43316647410392761,-78.251388549804688,0.24451304972171783,0.01118815504014492,-39.309566497802734,0.0071984878741204739,-0.0035778989549726248,-9.8090734481811523,-0.0018707428826019168,8
1.5252054929733276,-77.804412841796875,0.30069056153297424,0.2379898875951767,-39.19842529296875,0.0018957852153107524,0.001777857425622642,-9.8097600936889648,-0.0011878028744831681,8
2.8993644714355469,-77.565048217773438,0.38538587093353271,0.50480133295059204,-39.122810363769531,0.010877265594899654,0.0058382744900882244,-9.8039236068725586,-0.0037932859268039465,8
-2.8589222431182861,-77.561576843261719,0.66046255826950073,-0.50475031137466431,-39.122360229492188,0.016867127269506454,-0.0061082835309207439,-9.8040380477905273,-0.0058631966821849346,8
-1.6029605865478516,-77.782554626464844,0.51995480060577393,-0.23904094099998474,-39.197658538818359,0.0029315506108105183,-0.00062003725906834006,-9.8101034164428711,-0.0018767499132081866,8
-0.42353281378746033,-78.226837158203125,0.45095333456993103,-0.0038066697306931019,-39.309089660644531,0.010190313681960106,0.0031296627130359411,-9.8094167709350586,-0.0032822133507579565,8
-0.21936628222465515,-78.251663208007812,0.43290236592292786,-0.0010556841734796762,-39.309547424316406,0.01114814355969429,0.0018085037590935826,-9.8090734481811523,-0.0035614145454019308,8
-0.059094078838825226,-78.249755859375,0.43903344869613647,0.0019003776833415031,-39.309566497802734,0.011991196312010288,0.00049402937293052673,-9.8090734481811523,-0.0039121136069297791,8
0.081764236092567444,-78.24957275390625,0.43917638063430786,0.0041404790244996548,-39.3095703125,0.012004027143120766,-0.00050878152251243591,-9.8090734481811523,-0.0039205513894557953,8
0.24455513060092926,-78.251388549804688,0.4330894947052002,0.0072083533741533756,-39.309566497802734,0.01117764413356781,-0.0018714274046942592,-9.8090734481811523,-0.0035770607646554708,8
0.4504428505897522,-78.227005004882812,0.45039588212966919,0.010113232769072056,-39.309165954589844,0.01010285597294569,-0.003245360916480422,-9.8095312118530273,-0.0032446065451949835,8
1.6030192375183105,-77.783706665039062,0.51995998620986938,0.23896439373493195,-39.198093414306641,0.0029330335091799498,0.000595003308262676,-9.8101034164428711,-0.0018776579527184367,8
2.858950138092041,-77.561576843261719,0.66046255826950073,0.50475937128067017,-39.122364044189453,0.016867043450474739,0.0061082835309207439,-9.8040380477905273,-0.0058632525615394115,8
-2.2176001071929932,-77.52532958984375,1.6266970634460449,-0.32338318228721619,-39.112136840820312,0.24796377122402191,-0.0083819031715393066,-9.8032369613647461,-0.00094056123634800315,8
-1.7965288162231445,-77.545616149902344,1.7965230941772461,-0.27859783172607422,-39.118896484375,0.27859592437744141,-0.0048583741299808025,-9.8015203475952148,0.0048574800603091717,8
-0.51941180229187012,-77.783660888671875,1.603113055229187,-0.0027225497178733349,-39.198085784912109,0.23897470533847809,0.0018810176989063621,-9.8101034164428711,0.00058874482056125998,8
-0.30004173517227173,-77.804374694824219,1.5253137350082397,-0.0016816467978060246,-39.198417663574219,0.23799626529216766,0.0011861963430419564,-9.8097600936889648,0.0017738341121003032,8
-0.097751729190349579,-77.815078735351562,1.4878020286560059,-0.00048088823677971959,-39.198600769042969,0.23746722936630249,0.00038896742626093328,-9.8094167709350586,0.0024855134543031454,8
0.098497793078422546,-77.815093994140625,1.4877384901046753,0.00069787102984264493,-39.198600769042969,0.23746529221534729,-0.00039495524833910167,-9.8094167709350586,0.0024868545588105917,8
0.30068668723106384,-77.804405212402344,1.525201678276062,0.0018953708931803703,-39.198421478271484,0.23798981308937073,-0.0011878063669428229,-9.8097600936889648,0.0017783044604584575,8
0.51995688676834106,-77.783699035644531,1.6030168533325195,0.0029326279181987047,-39.198089599609375,0.23896436393260956,-0.0018776579527184367,-9.8101034164428711,0.000595003308262676,8
1.7965455055236816,-77.545608520507812,1.7965410947799683,0.27860823273658752,-39.118892669677734,0.27860620617866516,0.0048574800603091717,-9.8015203475952148,0.00485569192096591,8
2.2176213264465332,-77.52532958984375,1.6266971826553345,0.32338985800743103,-39.112140655517578,0.24796360731124878,0.0083819031715393066,-9.8032369613647461,-0.00094100827118381858,8
-1.9930731058120728,-77.525177001953125,1.9930688142776489,-0.28094446659088135,-39.115310668945312,0.28094232082366943,-0.003314316039904952,-9.8032369613647461,0.0033134219702333212,8
-1.6266878843307495,-77.52532958984375,2.2176153659820557,-0.247960165143013,-39.112136840820312,0.32338821887969971,0.00094056123634800315,-9.8032369613647461,0.0083819031715393066,8
-0.66045582294464111,-77.56158447265625,2.8589398860931396,-0.016863854601979256,-39.122364044189453,0.50475651025772095,0.0058634201996028423,-9.8040380477905273,0.0061100716702640057,8
-0.38537818193435669,-77.565055847167969,2.8993546962738037,-0.010874080471694469,-39.122810363769531,0.50479888916015625,0.0037935373838990927,-9.8039236068725586,0.0058382744900882244,8
-0.12700733542442322,-77.566627502441406,2.9170622825622559,-0.003696715459227562,-39.123027801513672,0.50488036870956421,0.0013086803955957294,-9.8039236068725586,0.0056415791623294353,8
0.12701322138309479,-77.566627502441406,2.9170629978179932,0.0036996800918132067,-39.123027801513672,0.50488048791885376,-0.0013083940139040351,-9.8039236068725586,0.0056415791623294353,8
0.38538429141044617,-77.565055847167969,2.8993568420410156,0.010877097025513649,-39.122810363769531,0.50479918718338013,-0.003793257987126708,-9.8039236068725586,0.0058382744900882244,8
0.66046184301376343,-77.56158447265625,2.8589434623718262,0.016866931691765785,-39.122364044189453,0.50475698709487915,-0.0058632525615394115,-9.8040380477905273,0.0061100716702640057,8
1.6266940832138062,-77.52532958984375,2.2176234722137451,0.24796222150325775,-39.112140655517578,0.32339146733283997,-0.00094100827118381858,-9.8032369613647461,0.0083819031715393066,8
1.9930875301361084,-77.525177001953125,1.9930801391601562,0.28095266222953796,-39.115306854248047,0.2809506356716156,0.003314316039904952,-9.8032369613647461,0.003314316039904952,8
-2.05179762840271,-77.267715454101562,-2.0517864227294922,-0.28743964433670044,-39.104393005371094,-0.28743541240692139,-0.000410377950174734,-9.8063268661499023,-0.000410377950174734,8
-1.6512340307235718,-77.275558471679688,-2.3017923831939697,-0.24622169137001038,-39.104244232177734,-0.33468577265739441,0.00071436160942539573,-9.8059835433959961,-0.0038364527281373739,8
-0.67374688386917114,-77.32733154296875,-2.9335863590240479,-0.019045393913984299,-39.115898132324219,-0.51106351613998413,0.006316713523119688,-9.8059835433959961,-0.0036138293799012899,8
-0.39203375577926636,-77.33441162109375,-2.9757528305053711,-0.011981629766523838,-39.116748809814453,-0.51103228330612183,0.0039743632078170776,-9.8058691024780273,-0.003352761035785079,8
-0.12851114571094513,-77.3372802734375,-2.9938125610351562,-0.0039353743195533752,-39.117160797119141,-0.51108771562576294,0.0013481451896950603,-9.8056402206420898,-0.0031417605932801962,8
0.12851926684379578,-77.3372802734375,-2.9938127994537354,0.0039389180019497871,-39.117160797119141,-0.51108783483505249,-0.0013479775516316295,-9.8056402206420898,-0.0031417605932801962,8
0.39204177260398865,-77.33441162109375,-2.9757528305053711,0.011985105462372303,-39.116752624511719,-0.5110325813293457,-0.0039742235094308853,-9.8059835433959961,-0.003352761035785079,8
0.67375379800796509,-77.327339172363281,-2.9335873126983643,0.019048510119318962,-39.115901947021484,-0.51106351613998413,-0.0063166017644107342,-9.8059835433959961,-0.0036138293799012899,8
1.6512374877929688,-77.275558471679688,-2.301795482635498,0.24622301757335663,-39.104240417480469,-0.33468684554100037,-0.00071436160942539573,-9.8059835433959961,-0.0038364527281373739,8
2.0518012046813965,-77.267715454101562,-2.0517916679382324,0.28744179010391235,-39.104393005371094,-0.28743797540664673,0.00041127201984636486,-9.8063268661499023,-0.00041127201984636486,8
-2.3017826080322266,-77.275558471679688,-1.6512387990951538,-0.33468297123908997,-39.104248046875,-0.24622367322444916,-0.0038364527281373739,-9.8059835433959961,0.00071436160942539573,8
-1.8593293428421021,-77.294876098632812,-1.8593140840530396,-0.28440585732460022,-39.109615325927734,-0.28440156579017639,-0.0016227363375946879,-9.8049535751342773,-0.0016218422679230571,8
-0.54649311304092407,-77.587493896484375,-1.723139762878418,-0.0033275713212788105,-39.197139739990234,-0.2412656843662262,0.0022868623491376638,-9.8104467391967773,0.0015909968642517924,8
-0.31442037224769592,-77.621299743652344,-1.6259156465530396,-0.0020925365388393402,-39.197616577148438,-0.23964758217334747,0.0014593870146200061,-9.8099889755249023,-0.00025838613510131836,8
-0.10126754641532898,-77.641998291015625,-1.5733309984207153,-0.00060548901092261076,-39.197948455810547,-0.23862077295780182,0.00046880505396984518,-9.8094167709350586,-0.0018042324809357524,8
0.10208045691251755,-77.64202880859375,-1.5732951164245605,0.0008217102731578052,-39.197948455810547,-0.23861795663833618,-0.00047948324936442077,-9.8094167709350586,-0.0018046795157715678,8
0.31507804989814758,-77.621391296386719,-1.6258091926574707,0.0023038061335682869,-39.197620391845703,-0.23963803052902222,-0.0014607700286433101,-9.8099889755249023,-0.00026375055313110352,8
0.54701745510101318,-77.587547302246094,-1.7230312824249268,0.0035343663766980171,-39.197147369384766,-0.24125242233276367,-0.002282147528603673,-9.8104467391967773,0.0015829502372071147,8
1.8593335151672363,-77.294876098632812,-1.8593208789825439,0.28440865874290466,-39.109615325927734,-0.28440457582473755,0.0016227363375946879,-9.8049535751342773,-0.0016227363375946879,8
2.3017957210540771,-77.275550842285156,-1.6512385606765747,0.33468630909919739,-39.104240417480469,-0.24622349441051483,0.0038364527281373739,-9.8059835433959961,0.00071436160942539573,8
-2.9335739612579346,-77.32733154296875,-0.67374420166015625,-0.51106041669845581,-39.115898132324219,-0.019044727087020874,-0.0036138293799012899,-9.8059835433959961,0.006316713523119688,8
-1.7231528759002686,-77.587486267089844,-0.54648923873901367,-0.24126923084259033,-39.197135925292969,-0.0033269226551055908,0.0015909968642517924,-9.8104467391967773,0.0022868902888149023,8
-0.50162762403488159,-78.041511535644531,-0.50164270401000977,-0.0052756019867956638,-39.307285308837891,-0.0052830111235380173,0.0042394129559397697,-9.8111333847045898,0.0042389798909425735,8
-0.26502799987792969,-78.070228576660156,-0.46733653545379639,-0.002054945332929492,-39.308013916015625,-0.0051916018128395081,0.002467017387971282,-9.8104467391967773,0.003950139507651329,8
-0.073808237910270691,-78.097923278808594,-0.43861362338066101,0.0016631402540951967,-39.308441162109375,-0.0055992999114096165,0.00064157176529988647,-9.8101034164428711,0.0039865169674158096,8
0.09530775249004364,-78.098258972167969,-0.43854290246963501,0.004433278925716877,-39.308456420898438,-0.0056082997471094131,-0.00067379319807514548,-9.8101034164428711,0.0039879418909549713,8
0.28704872727394104,-78.071182250976562,-0.4669640064239502,0.0082282107323408127,-39.308067321777344,-0.0052019841969013214,-0.0025190410669893026,-9.8104467391967773,0.0039478903636336327,8
0.52260303497314453,-78.042404174804688,-0.50067418813705444,0.011483826674520969,-39.307395935058594,-0.0052071176469326019,-0.0042807497084140778,-9.8111333847045898,0.004188227467238903,8
1.7232204675674438,-77.588523864746094,-0.54650843143463135,0.2412017434835434,-39.197566986083984,-0.0033290497958660126,-0.0016218422679230571,-9.8104467391967773,0.0022890695836395025,8
2.9335966110229492,-77.327339172363281,-0.67374557256698608,0.51106917858123779,-39.115901947021484,-0.019045313820242882,0.0036138293799012899,-9.8059835433959961,0.0063166017644107342,8
-2.975738525390625,-77.33441162109375,-0.39203274250030518,-0.51102924346923828,-39.116748809814453,-0.011981317773461342,-0.003352761035785079,-9.8058691024780273,0.0039743352681398392,8
-1.6259305477142334,-77.621299743652344,-0.31441748142242432,-0.2396509051322937,-39.197612762451172,-0.0020918718073517084,-0.00025793910026550293,-9.8099889755249023,0.0014594219392165542,8
-0.46731722354888916,-78.070228576660156,-0.26504793763160706,-0.0051840306259691715,-39.308013916015625,-0.0020627302583307028,0.0039504887536168098,-9.8104467391967773,0.0024667589459568262,8
0.49347621202468872,-78.070930480957031,-0.2650444507598877,0.011529993265867233,-39.308124542236328,-0.0020117515232414007,-0.0040709506720304489,-9.8104467391967773,0.0024376807268708944,8
1.6259427070617676,-77.622566223144531,-0.31444853544235229,0.23956060409545898,-39.19805908203125,-0.0020937072113156319,0.00025346875190734863,-9.8099889755249023,0.0014612310333177447,8
2.9757699966430664,-77.334403991699219,-0.39203456044197083,0.51103907823562622,-39.116752624511719,-0.0119820237159729,0.003352761035785079,-9.8058691024780273,0.0039743073284626007,8
-2.9937996864318848,-77.3372802734375,-0.12851078808307648,-0.51108473539352417,-39.117156982421875,-0.0039352420717477798,-0.0031417605932801962,-9.8056402206420898,0.0013481451896950603,8
-1.5733458995819092,-77.641998291015625,-0.10126533359289169,-0.23862403631210327,-39.197948455810547,-0.00060480582760646939,-0.0018042324809357524,-9.8094167709350586,0.00046882775495760143,8
-0.43859192728996277,-78.097923278808594,-0.073829963803291321,-0.0055915950797498226,-39.308441162109375,0.001654999447055161,0.003986782394349575,-9.8101034164428711,0.00064144952921196818,8
0.46877431869506836,-78.097869873046875,-0.074369244277477264,0.012010179460048676,-39.308544158935547,0.0016386483330279589,-0.0041526742279529572,-9.8101034164428711,0.00064588146051391959,8
1.5732865333557129,-77.643508911132812,-0.10128261148929596,0.23849791288375854,-39.198413848876953,-0.00060542084975168109,0.0018788872985169291,-9.8094167709350586,0.00046948084491305053,8
2.9938311576843262,-77.337287902832031,-0.12851247191429138,0.51109397411346436,-39.117164611816406,-0.0039356588385999203,0.0031417605932801962,-9.8056402206420898,0.0013481591595336795,8
-2.9938004016876221,-77.3372802734375,0.12851990759372711,-0.51108479499816895,-39.117156982421875,0.0039391280151903629,-0.0031417605932801962,-9.8056402206420898,-0.001347949611954391,8
-1.5733106136322021,-77.642021179199219,0.10208325833082199,-0.23862123489379883,-39.197948455810547,0.00082241662312299013,-0.0018046795157715678,-9.8094167709350586,-0.00047947277198545635,8
-0.43852266669273376,-78.0982666015625,0.095281250774860382,-0.005600515753030777,-39.308456420898438,0.0044246949255466461,0.0039881514385342598,-9.8101034164428711,-0.00067375128855928779,8
0.4687519371509552,-78.098121643066406,0.095089636743068695,0.012015260756015778,-39.308555603027344,0.0043774386867880821,-0.0041536800563335419,-9.8101034164428711,-0.00065588386496528983,8
1.5732449293136597,-77.643524169921875,0.10209493339061737,0.23849552869796753,-39.198413848876953,0.00082375621423125267,0.0018788872985169291,-9.8094167709350586,-0.00048097802209667861,8
2.9938321113586426,-77.337287902832031,0.12851874530315399,0.51109415292739868,-39.117164611816406,0.0039387890137732029,0.0031417605932801962,-9.8056402206420898,-0.0013480334309861064,8
-2.9757411479949951,-77.33441162109375,0.39204287528991699,-0.51102942228317261,-39.116748809814453,0.011985407210886478,-0.003352761035785079,-9.8058691024780273,-0.0039741676300764084,8
-1.625818133354187,-77.621391296386719,0.31508108973503113,-0.23964114487171173,-39.197620391845703,0.0023044934496283531,-0.00026419758796691895,-9.8099889755249023,-0.0014607700286433101,8
-0.46694380044937134,-78.071182250976562,0.28701764345169067,-0.005194155965000391,-39.308067321777344,0.008218938484787941,0.0039480999112129211,-9.8104467391967773,-0.0025187337305396795,8
0.49333539605140686,-78.071334838867188,0.28632229566574097,0.011527677997946739,-39.308162689208984,0.0081095946952700615,-0.0040678493678569794,-9.8104467391967773,-0.0024713200982660055,8
1.6258503198623657,-77.622611999511719,0.31510251760482788,0.23955264687538147,-39.19805908203125,0.0023067439906299114,0.00025793910026550293,-9.8099889755249023,-0.0014626070624217391,8
2.9757728576660156,-77.334403991699219,0.39204251766204834,0.51103949546813965,-39.116752624511719,0.011985412798821926,0.0033509728964418173,-9.8058691024780273,-0.0039742235094308853,8
-2.9335732460021973,-77.327339172363281,0.67375493049621582,-0.51106011867523193,-39.115901947021484,0.019048910588026047,-0.0036138293799012899,-9.8059835433959961,-0.0063166017644107342,8
-1.7230402231216431,-77.587547302246094,0.54702216386795044,-0.24125535786151886,-39.1971435546875,0.0035350313410162926,0.0015829502372071147,-9.8104467391967773,-0.002282147528603673,8
-0.50065642595291138,-78.042396545410156,0.52256804704666138,-0.0051995399408042431,-39.307395935058594,0.011473989114165306,0.00418846495449543,-9.8111333847045898,-0.0042801909148693085,8
-0.26502421498298645,-78.070930480957031,0.4934346079826355,-0.0020038553047925234,-39.308124542236328,0.011519786901772022,0.002437834395095706,-9.8104467391967773,-0.0040702242404222488,8
-0.074345506727695465,-78.097869873046875,0.468729168176651,0.0016470401315018535,-39.308544158935547,0.011999777518212795,0.00064587447559460998,-9.8101034164428711,-0.0041518919169902802,8
0.095118358731269836,-78.098114013671875,0.46870806813240051,0.0043864031322300434,-39.308555603027344,0.012004855088889599,-0.00065613532206043601,-9.8101034164428711,-0.0041529256850481033,8
0.28635561466217041,-78.071334838867188,0.49329495429992676,0.0081193149089813232,-39.308162689208984,0.011517425999045372,-0.0024717671331018209,-9.8104467391967773,-0.0040671788156032562,8
0.52167457342147827,-78.042945861816406,0.5216405987739563,0.01137582678347826,-39.3074951171875,0.011365701444447041,-0.0042233336716890335,-9.8111333847045898,-0.0042228028178215027,8
1.7231316566467285,-77.58856201171875,0.54703575372695923,0.24119004607200623,-39.19757080078125,0.0035373070277273655,-0.0016151367453858256,-9.8104467391967773,-0.0022839985322207212,8
2.9336001873016357,-77.327339172363281,0.67375433444976807,0.51106971502304077,-39.11590576171875,0.019048862159252167,0.0036138293799012899,-9.8059835433959961,-0.0063166017644107342,8
-2.3017795085906982,-77.275558471679688,1.6512415409088135,-0.33468270301818848,-39.104244232177734,0.24622440338134766,-0.0038364527281373739,-9.8059835433959961,-0.00071436160942539573,8
-1.8593270778656006,-77.294876098632812,1.8593178987503052,-0.28440684080123901,-39.109615325927734,0.28440460562705994,-0.0016227363375946879,-9.8049535751342773,0.0016227363375946879,8
-0.54651170969009399,-77.588516235351562,1.7232204675674438,-0.0033295147586613894,-39.197563171386719,0.2412019670009613,0.0022890137042850256,-9.8104467391967773,-0.0016218422679230571,8
-0.31444954872131348,-77.622566223144531,1.6259417533874512,-0.0020941216498613358,-39.198055267333984,0.23956066370010376,0.0014612030936405063,-9.8099889755249023,0.00025391578674316406,8
-0.10128325223922729,-77.643508911132812,1.5732861757278442,-0.00060580618446692824,-39.198410034179688,0.23849785327911377,0.00046941798063926399,-9.8094167709350586,0.0018788872985169291,8
0.10209313780069351,-77.643524169921875,1.5732438564300537,0.00082338077481836081,-39.198410034179688,0.23849543929100037,-0.00048103914014063776,-9.8094167709350586,0.0018788872985169291,8
0.31509971618652344,-77.622611999511719,1.625847339630127,0.0023063304834067822,-39.198055267333984,0.23955254256725311,-0.0014626210322603583,-9.8099889755249023,0.00025793910026550293,8
0.54703307151794434,-77.58856201171875,1.7231284379959106,0.0035368516109883785,-39.197566986083984,0.24118989706039429,-0.0022840544115751982,-9.8104467391967773,-0.0016151367453858256,8
1.8593372106552124,-77.294876098632812,1.8593281507492065,0.28441318869590759,-39.109615325927734,0.28441119194030762,0.0016254185466095805,-9.8049535751342773,0.0016254185466095805,8
2.3017981052398682,-77.275558471679688,1.6512399911880493,0.33468818664550781,-39.104248046875,0.24622428417205811,0.0038382408674806356,-9.8059835433959961,-0.00071436160942539573,8
-2.0517959594726562,-77.267715454101562,2.0517892837524414,-0.28744024038314819,-39.104393005371094,0.2874377965927124,-0.00041127201984636486,-9.8063268661499023,0.00041127201984636486,8
-1.651232123374939,-77.275558471679688,2.3017942905426025,-0.24622122943401337,-39.104244232177734,0.33468705415725708,0.00071436160942539573,-9.8059835433959961,0.0038382408674806356,8
-0.67374622821807861,-77.327339172363281,2.9335918426513672,-0.01904560811817646,-39.11590576171875,0.51106721162796021,0.0063166017644107342,-9.8059835433959961,0.0036138293799012899,8
-0.39203310012817383,-77.33441162109375,2.9757616519927979,-0.011981943622231483,-39.116756439208984,0.51103687286376953,0.0039743073284626007,-9.8059835433959961,0.0033509728964418173,8
-0.12851139903068542,-77.337295532226562,2.9938194751739502,-0.0039355424232780933,-39.117164611816406,0.51109147071838379,0.0013481172500178218,-9.8056402206420898,0.0031417605932801962,8
0.12851855158805847,-77.337295532226562,2.9938206672668457,0.0039388248696923256,-39.117164611816406,0.51109158992767334,-0.0013479356421157718,-9.8056402206420898,0.0031417605932801962,8
0.39204072952270508,-77.33441162109375,2.9757647514343262,0.011985250748693943,-39.116752624511719,0.51103717088699341,-0.0039741955697536469,-9.8058691024780273,0.003352761035785079,8
0.67375451326370239,-77.327339172363281,2.9335930347442627,0.019048962742090225,-39.11590576171875,0.51106774806976318,-0.0063166017644107342,-9.8059835433959961,0.0036138293799012899,8
1.6512361764907837,-77.275558471679688,2.3018007278442383,0.2462228536605835,-39.104248046875,0.33468970656394958,-0.00071436160942539573,-9.8059835433959961,0.0038382408674806356,8
2.0518031120300293,-77.267723083496094,2.0517961978912354,0.28744465112686157,-39.104393005371094,0.28744262456893921,0.00041306015918962657,-9.8063268661499023,0.00041306015918962657,8
-2.1026687622070312,-77.015037536621094,-2.1026575565338135,-0.29376795887947083,-39.092315673828125,-0.29376393556594849,0.0017532705096527934,-9.8095312118530273,0.0017532705096527934,8
-1.6652863025665283,-77.030319213867188,-2.3876345157623291,-0.2442660927772522,-39.094940185546875,-0.34702813625335693,0.00051543116569519043,-9.8087301254272461,0.00014662741159554571,8
-0.69598698616027832,-77.0911865234375,-3.0092074871063232,-0.022285804152488708,-39.106910705566406,-0.51925563812255859,0.007016714196652174,-9.8087301254272461,-0.00076711172005161643,8
-0.40421530604362488,-77.106269836425781,-3.052393913269043,-0.013816834427416325,-39.108852386474609,-0.51873594522476196,0.0043811928480863571,-9.8083868026733398,-0.00054717063903808594,8
-0.13153670728206635,-77.114448547363281,-3.0684983730316162,-0.0043582548387348652,-39.110004425048828,-0.51836436986923218,0.0014735384611412883,-9.8080434799194336,-0.00041842457721941173,8
0.1315474808216095,-77.114448547363281,-3.0684974193572998,0.0043622963130474091,-39.110004425048828,-0.51836448907852173,-0.0014735384611412883,-9.8080434799194336,-0.00041842457721941173,8
0.40422624349594116,-77.106269836425781,-3.052393913269043,0.01382075808942318,-39.108852386474609,-0.51873642206192017,-0.0043812766671180725,-9.8083868026733398,-0.00054717063903808594,8
0.69599735736846924,-77.0911865234375,-3.0092084407806396,0.022289412096142769,-39.106910705566406,-0.5192563533782959,-0.0070168818347156048,-9.8087301254272461,-0.00076711172005161643,8
1.6652889251708984,-77.030319213867188,-2.3876364231109619,0.24426719546318054,-39.094940185546875,-0.34702888131141663,-0.00051543116569519043,-9.8087301254272461,0.00014662741159554571,8
2.1026692390441895,-77.015037536621094,-2.1026611328125,0.29376909136772156,-39.092315673828125,-0.29376575350761414,-0.0017532705096527934,-9.8095312118530273,0.0017532705096527934,8
-2.3876264095306396,-77.03033447265625,-1.6652920246124268,-0.34702375531196594,-39.094947814941406,-0.24426835775375366,0.00014930962061043829,-9.8087301254272461,0.00051453709602355957,8
-1.927885890007019,-77.042686462402344,-1.9278697967529297,-0.29124939441680908,-39.097293853759766,-0.29124531149864197,0.0010067224502563477,-9.8083868026733398,0.0010067224502563477,8
-0.60576874017715454,-77.359428405761719,-1.9691946506500244,-0.0061014853417873383,-39.195117950439453,-0.2494339644908905,0.0035618196707218885,-9.8121633529663086,0.0078888237476348877,8
-0.34230846166610718,-77.417373657226562,-1.8333799839019775,-0.0031345025636255741,-39.196636199951172,-0.24358990788459778,0.0020914315246045589,-9.8107900619506836,0.0034904477652162313,8
-0.10933198779821396,-77.450325012207031,-1.7605999708175659,-0.0008827622514218092,-39.1971435546875,-0.24183982610702515,0.00065131747396662831,-9.8104467391967773,0.0017130373744294047,8
0.11001390218734741,-77.450340270996094,-1.7605774402618408,0.0010944390669465065,-39.1971435546875,-0.24183747172355652,-0.00065383728360757232,-9.8104467391967773,0.0017121433047577739,8
0.34287050366401672,-77.417411804199219,-1.8333228826522827,0.0033405895810574293,-39.196640014648438,-0.24358072876930237,-0.0020877155475318432,-9.8107900619506836,0.003485977416858077,8
0.60619992017745972,-77.359481811523438,-1.9690779447555542,0.0062922569923102856,-39.19512939453125,-0.24940371513366699,-0.0035506018903106451,-9.8121633529663086,0.00788077712059021,8
1.9278872013092041,-77.042686462402344,-1.9278764724731445,0.29125100374221802,-39.097293853759766,-0.29124748706817627,-0.0010058283805847168,-9.8083868026733398,0.0010058283805847168,8
2.3876340389251709,-77.030303955078125,-1.6652919054031372,0.34702906012535095,-39.094936370849609,-0.24426780641078949,-0.00014573334192391485,-9.8087301254272461,0.00051543116569519043,8
-3.0091967582702637,-77.0911865234375,-0.69598370790481567,-0.51925277709960938,-39.106910705566406,-0.022285014390945435,-0.00076711172005161643,-9.8087301254272461,0.007016714196652174,8
-1.9692158699035645,-77.359420776367188,-0.60576760768890381,-0.24943853914737701,-39.195114135742188,-0.0061010909266769886,0.0078897178173065186,-9.8121633529663086,0.0035619034897536039,8
-0.60837316513061523,-77.85296630859375,-0.60838538408279419,-0.0068354220129549503,-39.306224822998047,-0.0068425177596509457,0.0053000445477664471,-9.8121633529663086,0.0052994159050285816,8
-0.33403575420379639,-77.883934020996094,-0.62468236684799194,-0.0036996572744101286,-39.306610107421875,-0.0070731802843511105,0.0035286133643239737,-9.8118200302124023,0.0052734599448740482,8
-0.091094128787517548,-77.911888122558594,-0.61305081844329834,0.0013353750109672546,-39.306865692138672,-0.0073019163683056831,0.00092332594795152545,-9.8114767074584961,0.0052279881201684475,8
0.10843582451343536,-77.912010192871094,-0.61304062604904175,0.0046567553654313087,-39.306877136230469,-0.0073046833276748657,-0.00088669353863224387,-9.8114767074584961,0.0052267168648540974,8
0.35171172022819519,-77.884346008300781,-0.62446516752243042,0.0098064364865422249,-39.306671142578125,-0.0070486781187355518,-0.0035183874424546957,-9.8118200302124023,0.0052544889040291309,8
0.62564677000045776,-77.853446960449219,-0.60791301727294922,0.012972540222108364,-39.306320190429688,-0.0067868209443986416,-0.0052892039529979229,-9.8121633529663086,0.0052607613615691662,8
1.969352126121521,-77.3602294921875,-0.6057923436164856,0.24942395091056824,-39.195491790771484,-0.0061092600226402283,-0.0079236924648284912,-9.8121633529663086,0.0035623505245894194,8
3.0092236995697021,-77.091194152832031,-0.69598537683486938,0.51926219463348389,-39.106914520263672,-0.022285817191004753,0.00076711172005161643,-9.8087301254272461,0.0070166024379432201,8
-3.0523805618286133,-77.106269836425781,-0.40421396493911743,-0.51873296499252319,-39.108852386474609,-0.013816456310451031,-0.00054717063903808594,-9.8083868026733398,0.0043811649084091187,8
-1.8334007263183594,-77.417366027832031,-0.34230703115463257,-0.24359382688999176,-39.196632385253906,-0.0031339556444436312,0.0034904477652162313,-9.8107900619506836,0.0020914175547659397,8
-0.62467074394226074,-77.883934020996094,-0.33404821157455444,-0.0070660649798810482,-39.306610107421875,-0.0037070771213620901,0.0052740746177732944,-9.8118200302124023,0.0035281104501336813,8
-0.32289448380470276,-77.903427124023438,-0.3229118287563324,-0.0034716809168457985,-39.307159423828125,-0.0034793014638125896,0.0032444528769701719,-9.8111333847045898,0.0032440966460853815,8
-0.098166666924953461,-77.925193786621094,-0.31601828336715698,0.0011327334214001894,-39.307167053222656,-0.0035710039082914591,0.00095583376241847873,-9.8111333847045898,0.0031925130169838667,8
0.11621332168579102,-77.925331115722656,-0.31600075960159302,0.004804510623216629,-39.307182312011719,-0.0035852624569088221,-0.000907760055270046,-9.8111333847045898,0.003195928642526269,8
0.34301283955574036,-77.903549194335938,-0.32301074266433716,0.0096492581069469452,-39.307205200195312,-0.0034870353993028402,-0.0032854822929948568,-9.8111333847045898,0.0032446274999529123,8
0.64405232667922974,-77.88433837890625,-0.3335731029510498,0.013235338963568211,-39.306739807128906,-0.0036373746115714312,-0.0052893436513841152,-9.8118200302124023,0.0034821846056729555,8
1.8335224390029907,-77.418342590332031,-0.3423369824886322,0.24354110658168793,-39.197052001953125,-0.003137681633234024,-0.0035230813082307577,-9.8107900619506836,0.0020932056941092014,8
3.052412748336792,-77.106269836425781,-0.40421593189239502,0.51874274015426636,-39.108856201171875,-0.013817163184285164,0.00054717063903808594,-9.8083868026733398,0.0043810531497001648,8
-3.0684869289398193,-77.114448547363281,-0.13153615593910217,-0.51836127042770386,-39.110004425048828,-0.0043580569326877594,-0.00041842457721941173,-9.8080434799194336,0.0014734965516254306,8
-1.7606120109558105,-77.4503173828125,-0.10932942479848862,-0.24184344708919525,-39.197139739990234,-0.00088208663510158658,0.0017130373744294047,-9.8104467391967773,0.00065132969757542014,8
-0.61303699016571045,-77.911888122558594,-0.091110214591026306,-0.0072947144508361816,-39.306865692138672,0.0013273786753416061,0.0052285329438745975,-9.8114767074584961,0.00092305702855810523,8
-0.31600341200828552,-77.925193786621094,-0.098184756934642792,-0.0035634117666631937,-39.307167053222656,0.0011247774818912148,0.0031928692478686571,-9.8111333847045898,0.00095556833548471332,8
-0.080042988061904907,-77.9381103515625,-0.080059662461280823,0.0016859888564795256,-39.306575775146484,0.0016781315207481384,0.00070528121432289481,-9.8111333847045898,0.00070494593819603324,8
0.096903115510940552,-77.938087463378906,-0.080048032104969025,0.0040569263510406017,-39.306575775146484,0.0016741598956286907,-0.0005777226178906858,-9.8111333847045898,0.00070633942959830165,8
0.33736178278923035,-77.9249267578125,-0.098311930894851685,0.0097457738593220711,-39.307193756103516,0.0011122564319521189,-0.0032436286564916372,-9.8111333847045898,0.00095986755331978202,8
0.6343616247177124,-77.911918640136719,-0.091097645461559296,0.01347630936652422,-39.3070068359375,0.0013240391854196787,-0.0052647846750915051,-9.8114767074584961,0.00091600226005539298,8
1.7607097625732422,-77.4515380859375,-0.10934578627347946,0.2417716383934021,-39.197566986083984,-0.00088317791232839227,-0.0017304717330262065,-9.8104467391967773,0.00065215042559430003,8
3.0685169696807861,-77.114448547363281,-0.13153772056102753,0.51837146282196045,-39.110008239746094,-0.0043586427345871925,0.00041663643787615001,-9.8080434799194336,0.0014734686119481921,8
-3.0684871673583984,-77.114448547363281,0.13154776394367218,-0.51836133003234863,-39.110004425048828,0.0043623810634016991,-0.00041842457721941173,-9.8080434799194336,-0.001473524491302669,8
-1.7605913877487183,-77.450340270996094,0.11001631617546082,-0.24184107780456543,-39.1971435546875,0.0010951447766274214,0.0017121433047577739,-9.8104467391967773,-0.00065381283638998866,8
-0.61302530765533447,-77.912010192871094,0.10841510444879532,-0.0072973840869963169,-39.306877136230469,0.004648265428841114,0.0052271918393671513,-9.8114767074584961,-0.0008867494179867208,8
-0.31598472595214844,-77.925331115722656,0.11619147658348083,-0.0035775571595877409,-39.307182312011719,0.0047960546799004078,0.0031962429638952017,-9.8111333847045898,-0.00090780196478590369,8
-0.080031484365463257,-77.938087463378906,0.096882946789264679,0.0016820571618154645,-39.306575775146484,0.004048776812851429,0.00070665025850757957,-9.8111333847045898,-0.00057790422579273582,8
0.096880964934825897,-77.9381103515625,0.096860885620117188,0.0040578488260507584,-39.306575775146484,0.0040496704168617725,-0.0005784630193375051,-9.8111333847045898,-0.00057865859707817435,8
0.3373832106590271,-77.925117492675781,0.11608955264091492,0.0097535736858844757,-39.307205200195312,0.0047815665602684021,-0.0032453888561576605,-9.8111333847045898,-0.00090375071158632636,8
0.63414126634597778,-77.912155151367188,0.10816991329193115,0.013468953780829906,-39.307022094726562,0.0046129999682307243,-0.005259308498352766,-9.8114767074584961,-0.00086910551181063056,8
1.7606899738311768,-77.451553344726562,0.11002277582883835,0.24176937341690063,-39.197566986083984,0.0010964475804939866,-0.0017295776633545756,-9.8104467391967773,-0.00065450085094198585,8
3.0685176849365234,-77.114448547363281,0.13154631853103638,0.51837164163589478,-39.110008239746094,0.0043620811775326729,0.00041663643787615001,-9.8080434799194336,-0.0014735384611412883,8
-3.0523827075958252,-77.106269836425781,0.40422680974006653,-0.51873320341110229,-39.108852386474609,0.013820940628647804,-0.00054717063903808594,-9.8083868026733398,-0.0043812207877635956,8
-1.833336353302002,-77.417404174804688,0.34287479519844055,-0.24358479678630829,-39.196640014648438,0.0033414794597774744,0.0034864244516938925,-9.8107900619506836,-0.0020877434872090816,8
-0.62445038557052612,-77.884346008300781,0.35168832540512085,-0.0070412768982350826,-39.306671142578125,0.009797142818570137,0.0052548800595104694,-9.8118200302124023,-0.003518163925036788,8
-0.32299309968948364,-77.903556823730469,0.34298422932624817,-0.0034791848156601191,-39.307205200195312,0.0096397306770086288,0.0032448300626128912,-9.8111333847045898,-0.0032851190771907568,8
-0.098292939364910126,-77.9249267578125,0.33732965588569641,0.0011204433394595981,-39.307193756103516,0.009736095555126667,0.00096000375924631953,-9.8111333847045898,-0.0032432095613330603,8
0.11611361056566238,-77.925117492675781,0.33735343813896179,0.0047902786172926426,-39.307205200195312,0.0097439456731081009,-0.00090380659094080329,-9.8111333847045898,-0.0032450535800307989,8
0.34288874268531799,-77.903656005859375,0.34286019206047058,0.009627658873796463,-39.307247161865234,0.0096180131658911705,-0.0032781620975583792,-9.8111333847045898,-0.0032777988817542791,8
0.64363276958465576,-77.88470458984375,0.35083577036857605,0.013182692229747772,-39.306797027587891,0.0096781319007277489,-0.0052611245773732662,-9.8118200302124023,-0.0034584009554237127,8
1.8334650993347168,-77.418388366699219,0.34289407730102539,0.24353212118148804,-39.197055816650391,0.0033448752947151661,-0.0035190579947084188,-9.8107900619506836,-0.0020889518782496452,8
3.0524160861968994,-77.106269836425781,0.40422612428665161,0.51874333620071411,-39.108856201171875,0.013820862397551537,0.00054717063903808594,-9.8083868026733398,-0.0043811649084091187,8
-3.0091948509216309,-77.0911865234375,0.69599884748458862,-0.51925301551818848,-39.106914520263672,0.022289969027042389,-0.00076711172005161643,-9.8088445663452148,-0.0070168818347156048,8
-1.9691064357757568,-77.359466552734375,0.60620719194412231,-0.24941073358058929,-39.195125579833984,0.0062941913492977619,0.00788077712059021,-9.8121633529663086,-0.0035507276188582182,8
-0.60789918899536133,-77.853446960449219,0.62561953067779541,-0.0067794262431561947,-39.306320190429688,0.012962653301656246,0.0052612503059208393,-9.8121633529663086,-0.0052888127975165844,8
-0.33355578780174255,-77.88433837890625,0.64402168989181519,-0.0036296031903475523,-39.306739807128906,0.013225294649600983,0.0034824151080101728,-9.8118200302124023,-0.0052887848578393459,8
-0.091078311204910278,-77.911918640136719,0.63432866334915161,0.0013324286555871367,-39.3070068359375,0.013466146774590015,0.00091606163186952472,-9.8114767074584961,-0.0052641979418694973,8
0.10819390416145325,-77.912147521972656,0.63411420583724976,0.0046218852512538433,-39.307022094726562,0.013458852656185627,-0.00086924521019682288,-9.8114767074584961,-0.0052587497048079967,8
0.35086348652839661,-77.88470458984375,0.64360350370407104,0.0096878428012132645,-39.306797027587891,0.013172582723200321,-0.0034587362315505743,-9.8118200302124023,-0.0052606216631829739,8
0.62498098611831665,-77.853797912597656,0.62495487928390503,0.0128781758248806,-39.306415557861328,0.012868152000010014,-0.0052391639910638332,-9.8121633529663086,-0.0052387448959052563,8
1.969251275062561,-77.360267639160156,0.60622531175613403,0.24939732253551483,-39.195499420166016,0.0063016791827976704,-0.0079169869422912598,-9.8121633529663086,-0.0035505320411175489,8
3.0092265605926514,-77.091194152832031,0.69599795341491699,0.51926285028457642,-39.106918334960938,0.022289860993623734,0.00076711172005161643,-9.8088445663452148,-0.0070167700760066509,8
-2.3876242637634277,-77.03033447265625,1.6652913093566895,-0.34702357649803162,-39.094944000244141,0.2442685067653656,0.00014841555093880743,-9.8087301254272461,-0.00051453709602355957,8
-1.9278842210769653,-77.042686462402344,1.9278726577758789,-0.29124969244003296,-39.097293853759766,0.29124698042869568,0.0010058283805847168,-9.8083868026733398,-0.0010058283805847168,8
-0.60579729080200195,-77.3602294921875,1.9693648815155029,-0.0061102681793272495,-39.195487976074219,0.24942632019519806,0.0035625600721687078,-9.8121633529663086,-0.0079250335693359375,8
-0.34233918786048889,-77.418342590332031,1.8335278034210205,-0.0031381945591419935,-39.197048187255859,0.24354173243045807,0.0020932266488671303,-9.8107900619506836,-0.0035235283430665731,8
-0.10934735089540482,-77.4515380859375,1.7607125043869019,-0.00088360148947685957,-39.197563171386719,0.24177198112010956,0.00065214867936447263,-9.8104467391967773,-0.0017304717330262065,8
0.11002188920974731,-77.451553344726562,1.7606914043426514,0.0010960659710690379,-39.197563171386719,0.24176964163780212,-0.00065454625291749835,-9.8104467391967773,-0.0017295776633545756,8
0.34289252758026123,-77.418388366699219,1.8334672451019287,0.0033445088192820549,-39.197052001953125,0.24353247880935669,-0.0020890426822006702,-9.8107900619506836,-0.0035195050295442343,8
0.606223464012146,-77.360260009765625,1.9692565202713013,0.0063015231862664223,-39.19549560546875,0.24939838051795959,-0.0035503644030541182,-9.8121633529663086,-0.0079169869422912598,8
1.9278885126113892,-77.042686462402344,1.9278795719146729,0.29125326871871948,-39.097293853759766,0.29125127196311951,-0.0010049343109130859,-9.8083868026733398,-0.0010049343109130859,8
2.3876359462738037,-77.03033447265625,1.6652911901473999,0.34702789783477783,-39.094947814941406,0.24426847696304321,-0.00014930962061043829,-9.8087301254272461,-0.00051453709602355957,8
-2.1026663780212402,-77.015037536621094,2.102658748626709,-0.29376798868179321,-39.092315673828125,0.29376509785652161,0.0017532705096527934,-9.8095312118530273,-0.0017532705096527934,8
-1.6652846336364746,-77.03033447265625,2.3876340389251709,-0.24426576495170593,-39.094944000244141,0.3470272421836853,0.00051453709602355957,-9.8087301254272461,-0.00014841555093880743,8
-0.69598782062530518,-77.091194152832031,3.0092177391052246,-0.022286396473646164,-39.106918334960938,0.5192602276802063,0.0070166583172976971,-9.8088445663452148,0.00076711172005161643,8
-0.40421560406684875,-77.106285095214844,3.0524032115936279,-0.013817011378705502,-39.108860015869141,0.51874005794525146,0.0043811369687318802,-9.8083868026733398,0.00054717063903808594,8
-0.13153697550296783,-77.114448547363281,3.0685076713562012,-0.0043584378436207771,-39.110008239746094,0.51836943626403809,0.0014734965516254306,-9.8080434799194336,0.00041842457721941173,8
0.13154676556587219,-77.114448547363281,3.0685088634490967,0.0043622767552733421,-39.110008239746094,0.51836961507797241,-0.0014734686119481921,-9.8080434799194336,0.00041842457721941173,8
0.4042256772518158,-77.106277465820312,3.0524091720581055,0.013820799998939037,-39.108856201171875,0.5187409520149231,-0.0043811928480863571,-9.8083868026733398,0.00054717063903808594,8
0.69599819183349609,-77.091194152832031,3.0092201232910156,0.022290034219622612,-39.106918334960938,0.51926100254058838,-0.0070167700760066509,-9.8088445663452148,0.00076711172005161643,8
1.6652868986129761,-77.03033447265625,2.3876385688781738,0.24426700174808502,-39.094947814941406,0.34702938795089722,-0.00051453709602355957,-9.8087301254272461,-0.00014841555093880743,8
2.1026699542999268,-77.015037536621094,2.1026639938354492,0.29377090930938721,-39.092315673828125,0.29376891255378723,-0.0017505883006379008,-9.8095312118530273,-0.0017505883006379008,8
-2.1419141292572021,-76.758514404296875,-2.1419031620025635,-0.29940441250801086,-39.079780578613281,-0.29940053820610046,0.0030711290892213583,-9.8125066757202148,0.0030711290892213583,8
-1.6646267175674438,-76.7762451171875,-2.4756786823272705,-0.24179810285568237,-39.083671569824219,-0.36089339852333069,0.00012740492820739746,-9.8114767074584961,0.0034600493963807821,8
-0.72391331195831299,-76.842071533203125,-3.080981969833374,-0.025337383151054382,-39.098598480224609,-0.52609014511108398,0.0078832916915416718,-9.8121633529663086,0.0017970799235627055,8
-0.42306190729141235,-76.862030029296875,-3.1336655616760254,-0.016021775081753731,-39.100887298583984,-0.52584230899810791,0.0050588692538440228,-9.8114767074584961,0.0023728606756776571,8
-0.13740493357181549,-76.874275207519531,-3.1545472145080566,-0.0049010524526238441,-39.102344512939453,-0.52564060688018799,0.0017407255945727229,-9.8111333847045898,0.0026643273886293173,8
0.13741697371006012,-76.874275207519531,-3.1545472145080566,0.0049053984694182873,-39.102344512939453,-0.52564072608947754,-0.0017407675040885806,-9.8111333847045898,0.0026643273886293173,8
0.42307421565055847,-76.862030029296875,-3.1336667537689209,0.01602601632475853,-39.100887298583984,-0.52584272623062134,-0.0050589251331984997,-9.8114767074584961,0.0023728606756776571,8
0.72392445802688599,-76.842071533203125,-3.0809836387634277,0.025341091677546501,-39.098594665527344,-0.52609080076217651,-0.0078835152089595795,-9.8121633529663086,0.0017970799235627055,8
1.6646280288696289,-76.7762451171875,-2.4756789207458496,0.241798996925354,-39.083671569824219,-0.36089351773262024,-0.00012740492820739746,-9.8114767074584961,0.0034600493963807821,8
2.1419131755828857,-76.758514404296875,-2.1419062614440918,0.29940471053123474,-39.079780578613281,-0.29940178990364075,-0.0030702350195497274,-9.8125066757202148,0.0030711290892213583,8
-2.4756710529327393,-76.7762451171875,-1.6646335124969482,-0.36089134216308594,-39.083675384521484,-0.24179995059967041,0.0034591553267091513,-9.8114767074584961,0.00012740492820739746,8
-1.985657811164856,-76.777183532714844,-1.9856433868408203,-0.29807838797569275,-39.0828857421875,-0.29807448387145996,0.0027653572615236044,-9.8118200302124023,0.0027653572615236044,8
-0.72958612442016602,-76.881492614746094,-2.7883639335632324,-0.025495724752545357,-39.098674774169922,-0.52647227048873901,0.0080591440200805664,-9.8121633529663086,0.0023066995199769735,8
-0.41977104544639587,-76.924530029296875,-2.8066308498382568,-0.015364553779363632,-39.101383209228516,-0.52614545822143555,0.0051334681920707226,-9.8114767074584961,0.0029414889868348837,8
-0.13473023474216461,-76.949073791503906,-2.8102705478668213,-0.0045865564607083797,-39.102584838867188,-0.52611571550369263,0.0017164041055366397,-9.8109045028686523,0.0033152101095765829,8
0.13476300239562988,-76.949073791503906,-2.8102715015411377,0.0045917718671262264,-39.102584838867188,-0.52611571550369263,-0.0017170327482745051,-9.8109045028686523,0.0033152101095765829,8
0.41979888081550598,-76.924537658691406,-2.8066322803497314,0.015369131229817867,-39.101383209228516,-0.52614551782608032,-0.0051340549252927303,-9.8114767074584961,0.0029414889868348837,8
0.72960692644119263,-76.881492614746094,-2.788367748260498,0.025499464944005013,-39.098674774169922,-0.52647280693054199,-0.0080593675374984741,-9.8121633529663086,0.0023066995199769735,8
1.9856555461883545,-76.777183532714844,-1.9856472015380859,0.29807886481285095,-39.0828857421875,-0.29807585477828979,-0.0027653572615236044,-9.8118200302124023,0.0027653572615236044,8
2.4756741523742676,-76.7762451171875,-1.6646343469619751,0.36089092493057251,-39.083671569824219,-0.24180038273334503,-0.0034600493963807821,-9.8114767074584961,0.00012740492820739746,8
-3.0809710025787354,-76.842071533203125,-0.72390961647033691,-0.52608740329742432,-39.098598480224609,-0.025336427614092827,0.0017970799235627055,-9.8121633529663086,0.0078832916915416718,8
-2.7883574962615967,-76.881492614746094,-0.72958129644393921,-0.52646929025650024,-39.098674774169922,-0.025494677945971489,0.0023066995199769735,-9.8121633529663086,0.0080591440200805664,8
-0.98417633771896362,-77.442573547363281,-0.98417246341705322,-0.11738614737987518,-39.240268707275391,-0.11738725006580353,-0.0002514570951461792,-9.8101034164428711,-0.0002514570951461792,8
-0.46150258183479309,-77.508522033691406,-1.1218905448913574,-0.017178308218717575,-39.248455047607422,-0.15334226191043854,0.0049639861099421978,-9.8097600936889648,-0.0026674566324800253,8
-0.12155707180500031,-77.521217346191406,-1.191836953163147,-0.00041550738387741148,-39.246967315673828,-0.16232296824455261,0.00082252832362428308,-9.8111333847045898,0.00084936612984165549,8
0.1250358372926712,-77.521240234375,-1.1919171810150146,0.0013771830126643181,-39.246963500976562,-0.16234226524829865,-0.00090429204283282161,-9.8111333847045898,0.00085160130402073264,8
0.46714168787002563,-77.508567810058594,-1.1216084957122803,0.019174326211214066,-39.248481750488281,-0.15302041172981262,-0.0048558595590293407,-9.8097600936889648,-0.0025512275751680136,8
0.98665666580200195,-77.443260192871094,-0.98402386903762817,0.11809660494327545,-39.240470886230469,-0.11734381318092346,0.00026553869247436523,-9.8101034164428711,-0.00025212764739990234,8
2.7884001731872559,-76.881500244140625,-0.72958290576934814,0.52647733688354492,-39.098682403564453,-0.025495277717709541,-0.0023066995199769735,-9.8121633529663086,0.0080589763820171356,8
3.0809986591339111,-76.842094421386719,-0.72391116619110107,0.52609539031982422,-39.098602294921875,-0.025336772203445435,-0.0017970799235627055,-9.8121633529663086,0.0078832916915416718,8
-3.1336541175842285,-76.862030029296875,-0.42305999994277954,-0.52583944797515869,-39.100887298583984,-0.016021315008401871,0.0023728606756776571,-9.8114767074584961,0.005058701615780592,8
-2.8066225051879883,-76.924530029296875,-0.41976845264434814,-0.52614223957061768,-39.101383209228516,-0.015364042483270168,0.0029414889868348837,-9.8114767074584961,0.0051334402523934841,8
-1.1219086647033691,-77.508514404296875,-0.46148955821990967,-0.15334907174110413,-39.248455047607422,-0.017173523083329201,-0.0026687977369874716,-9.8097600936889648,0.0049648801796138287,8
-0.46524626016616821,-77.682037353515625,-0.46525821089744568,-0.0068384688347578049,-39.306011199951172,-0.0068454868160188198,0.0052665309049189091,-9.8121633529663086,0.0052658324129879475,8
-0.10739631205797195,-77.718704223632812,-0.47980824112892151,0.0016899419715628028,-39.306476593017578,-0.0073761055245995522,0.00080275576328858733,-9.8118200302124023,0.0053080352954566479,8
0.12312310934066772,-77.71875,-0.47983354330062866,0.0042229783721268177,-39.306484222412109,-0.0073815793730318546,-0.00072416843613609672,-9.8118200302124023,0.0053079933859407902,8
0.48172938823699951,-77.682327270507812,-0.46507346630096436,0.01294715516269207,-39.306095123291016,-0.0068047805689275265,-0.0052389125339686871,-9.8121633529663086,0.0052380883134901524,8
1.124531626701355,-77.509918212890625,-0.46069684624671936,0.15408515930175781,-39.248832702636719,-0.016861720010638237,0.0027693805750459433,-9.8096456527709961,0.0049890759401023388,8
2.8066728115081787,-76.924560546875,-0.41977420449256897,0.52614957094192505,-39.101390838623047,-0.015365065075457096,-0.0029414889868348837,-9.8114767074584961,0.0051336637698113918,8
3.1336803436279297,-76.862037658691406,-0.42306196689605713,0.52584809064865112,-39.10089111328125,-0.016021979972720146,-0.0023728606756776571,-9.8114767074584961,0.005058701615780592,8
-3.1545393466949463,-76.874267578125,-0.13740414381027222,-0.52563822269439697,-39.102344512939453,-0.0049007749184966087,0.0026643273886293173,-9.8111333847045898,0.0017406417755410075,8
-2.8102648258209229,-76.949073791503906,-0.1347297728061676,-0.52611225843429565,-39.102588653564453,-0.0045863762497901917,0.0033152101095765829,-9.8110189437866211,0.0017163342563435435,8
-1.1918541193008423,-77.521217346191406,-0.12155933678150177,-0.1623266190290451,-39.246967315673828,-0.00041713417158462107,0.00084936612984165549,-9.8111333847045898,0.00082230480620637536,8
-0.47979652881622314,-77.718696594238281,-0.10741277039051056,-0.0073690558783710003,-39.306476593017578,0.0016820002347230911,0.0053086499683558941,-9.8118200302124023,0.00080243096454069018,8
-0.10831084102392197,-77.760566711425781,-0.10832560062408447,0.001605246914550662,-39.306415557861328,0.0015975612914189696,0.00077094993321225047,-9.8111333847045898,0.00077049591345712543,8
0.12409556657075882,-77.760612487792969,-0.10830102115869522,0.0040532140992581844,-39.306415557861328,0.0015986594371497631,-0.00058690080186352134,-9.8111333847045898,0.00076957041164860129,8
0.49799293279647827,-77.718894958496094,-0.10742310434579849,0.013487815856933594,-39.30657958984375,0.0016701868735253811,-0.0053230109624564648,-9.8118200302124023,0.00080046470975503325,8
1.1948667764663696,-77.52203369140625,-0.12150637805461884,0.1631825864315033,-39.247169494628906,-0.00042011274490505457,-0.000938326062168926,-9.8111333847045898,0.00081772793782874942,8
2.810319185256958,-76.9490966796875,-0.134733647108078,0.52611953020095825,-39.102592468261719,-0.0045871934853494167,-0.0033169982489198446,-9.8109045028686523,0.0017164739547297359,8
3.1545658111572266,-76.874275207519531,-0.13740558922290802,0.52564698457717896,-39.102348327636719,-0.0049013565294444561,-0.0026643273886293173,-9.8111333847045898,0.0017405300168320537,8
-3.1545393466949463,-76.874267578125,0.13741584122180939,-0.52563822269439697,-39.102344512939453,0.00490524061024189,0.0026643273886293173,-9.8111333847045898,-0.0017407535342499614,8
-2.8102655410766602,-76.949073791503906,0.13476184010505676,-0.5261121392250061,-39.102588653564453,0.0045916461385786533,0.0033152101095765829,-9.8110189437866211,-0.0017170327482745051,8
-1.1919324398040771,-77.521232604980469,0.12503001093864441,-0.16234593093395233,-39.246959686279297,0.0013757705455645919,0.00085160130402073264,-9.8111333847045898,-0.00090432696742936969,8
-0.479818195104599,-77.71875,0.12310083210468292,-0.0073743867687880993,-39.306484222412109,0.0042145522311329842,0.0053085102699697018,-9.8118200302124023,-0.00072426622500643134,8
-0.10828467458486557,-77.760612487792969,0.12407488375902176,0.0016064057126641273,-39.306415557861328,0.0040451758541166782,0.00076998252188786864,-9.8111333847045898,-0.00058719416847452521,8
0.12403364479541779,-77.760665893554688,0.12401420623064041,0.0040471628308296204,-39.306415557861328,0.0040391036309301853,-0.0005845818086527288,-9.8111333847045898,-0.00058484723558649421,8
0.49794879555702209,-77.718978881835938,0.12289801985025406,0.013486986979842186,-39.306591033935547,0.0041906037367880344,-0.0053202449344098568,-9.8118200302124023,-0.00071349547943100333,8
1.1949541568756104,-77.522048950195312,0.12494414299726486,0.16320258378982544,-39.247161865234375,0.0013788338983431458,-0.00094234937569126487,-9.8111333847045898,-0.00089585426030680537,8
2.8103229999542236,-76.9490966796875,0.13476036489009857,0.52611947059631348,-39.102592468261719,0.0045913336798548698,-0.0033187863882631063,-9.8109045028686523,-0.0017170606879517436,8
3.1545662879943848,-76.874275207519531,0.13741415739059448,0.52564716339111328,-39.102348327636719,0.0049048084765672684,-0.0026643273886293173,-9.8111333847045898,-0.001740669715218246,8
-3.1336545944213867,-76.862030029296875,0.42307379841804504,-0.52583950757980347,-39.100887298583984,0.016026075929403305,0.0023728606756776571,-9.8114767074584961,-0.0050588692538440228,8
-2.8066246509552002,-76.924545288085938,0.41979888081550598,-0.5261417031288147,-39.101383209228516,0.015369008295238018,0.002939700847491622,-9.8114767074584961,-0.0051340549252927303,8
-1.1216312646865845,-77.508567810058594,0.46712690591812134,-0.15302672982215881,-39.248477935791016,0.019168416038155556,-0.0025521216448396444,-9.8097600936889648,-0.0048566418699920177,8
-0.46505650877952576,-77.682327270507812,0.48169863224029541,-0.006797419860959053,-39.306095123291016,0.012937278486788273,0.0052384934388101101,-9.8121633529663086,-0.0052384934388101101,8
-0.10740342736244202,-77.718902587890625,0.49795857071876526,0.0016785796033218503,-39.30657958984375,0.013477637432515621,0.00080058345338329673,-9.8118200302124023,-0.005322424229234457,8
0.12292058765888214,-77.718978881835938,0.49792033433914185,0.0041993651539087296,-39.306591033935547,0.013476909138262272,-0.00071355135878548026,-9.8118200302124023,-0.0053197420202195644,8
0.4813377857208252,-77.682540893554688,0.48131304979324341,0.012869091704487801,-39.306182861328125,0.012859156355261803,-0.0051995734684169292,-9.8121633529663086,-0.0051992381922900677,8
1.1242822408676147,-77.509895324707031,0.46626463532447815,0.1537754237651825,-39.248859405517578,0.01883358508348465,0.0026500222738832235,-9.8097600936889648,-0.0048900018446147442,8
2.806678295135498,-76.924583435058594,0.41979905962944031,0.52614927291870117,-39.101390838623047,0.015368842519819736,-0.0029414889868348837,-9.8114767074584961,-0.0051345019601285458,8
3.1336829662322998,-76.862037658691406,0.42307290434837341,0.52584850788116455,-39.100894927978516,0.016025900840759277,-0.0023728606756776571,-9.8114767074584961,-0.005058701615780592,8
-3.0809690952301025,-76.842071533203125,0.72392678260803223,-0.52608740329742432,-39.098598480224609,0.025341801345348358,0.0017970799235627055,-9.8121633529663086,-0.0078835152089595795,8
-2.7883565425872803,-76.881492614746094,0.72961068153381348,-0.52646923065185547,-39.098674774169922,0.025500267744064331,0.0023066995199769735,-9.8121633529663086,-0.0080593675374984741,8
-0.9840431809425354,-77.443267822265625,0.98664522171020508,-0.11735047399997711,-39.240470886230469,0.11809273809194565,-0.00025212764739990234,-9.8101034164428711,0.00026553869247436523,8
-0.46066474914550781,-77.509933471679688,1.1245342493057251,-0.016848107799887657,-39.248832702636719,0.15408876538276672,0.0049897464923560619,-9.8096456527709961,0.0027707216795533895,8
-0.1214943528175354,-77.52203369140625,1.1948714256286621,-0.00041604947182349861,-39.247169494628906,0.16318404674530029,0.00081744504859670997,-9.8111333847045898,-0.000938326062168926,8
0.12495554238557816,-77.522048950195312,1.1949563026428223,0.0013830758398398757,-39.247161865234375,0.16320420801639557,-0.00089594855671748519,-9.8111333847045898,-0.00094234937569126487,8
0.46627286076545715,-77.509895324707031,1.124290943145752,0.018836623057723045,-39.248855590820312,0.15377797186374664,-0.0048905047588050365,-9.8097600936889648,0.0026500222738832235,8
0.98646700382232666,-77.443862915039062,0.98647403717041016,0.11804347485303879,-39.240646362304688,0.11804486066102982,0.00026553869247436523,-9.8101034164428711,0.00026531517505645752,8
2.7884023189544678,-76.881507873535156,0.72960978746414185,0.52647757530212402,-39.098682403564453,0.025499807670712471,-0.0023066995199769735,-9.8121633529663086,-0.0080593675374984741,8
3.0810012817382812,-76.842094421386719,0.72392451763153076,0.5260959267616272,-39.098602294921875,0.025341130793094635,-0.0017970799235627055,-9.8121633529663086,-0.0078834593296051025,8
