x,y,z,vx,vy,vz,ax,ay,az,mass
-0.91093897819519043,-0.02918010950088501,-0.91093891859054565,-0.1146584153175354,-1.5887082815170288,-0.11465799063444138,-0.4359414279460907,-10.265177726745605,-0.43593895435333252,8
-0.70822328329086304,-0.041917935013771057,-0.92333328723907471,-0.078776970505714417,-1.6577390432357788,-0.18008355796337128,-0.23552408814430237,-10.020886421203613,-0.1844380646944046,8
-0.50128746032714844,-0.047307033091783524,-0.92787808179855347,-0.016570834442973137,-1.6962041854858398,-0.21029961109161377,-0.096118159592151642,-9.9968500137329102,-0.1492161899805069,8
-0.29945603013038635,-0.047240555286407471,-0.92703157663345337,0.0050121895037591457,-1.6963084936141968,-0.20396485924720764,-0.00080601772060617805,-10.009592056274414,-0.17065419256687164,8
-0.099765315651893616,-0.046636037528514862,-0.92615789175033569,0.0030954801477491856,-1.68977952003479,-0.19538435339927673,0.015898765996098518,-9.9921789169311523,-0.15949262678623199,8
0.099765315651893616,-0.046636030077934265,-0.92615795135498047,-0.0030956165865063667,-1.6897794008255005,-0.19538454711437225,-0.015900176018476486,-9.9921789169311523,-0.15949396789073944,8
0.29945600032806396,-0.047240544110536575,-0.92703187465667725,-0.0050127464346587658,-1.6963083744049072,-0.20396611094474792,0.00080428546061739326,-10.009592056274414,-0.17065642774105072,8
0.50128746032714844,-0.047307051718235016,-0.92787909507751465,0.016569854691624641,-1.6962043046951294,-0.21030330657958984,0.096117682754993439,-9.9968500137329102,-0.14919786155223846,8
0.70822328329086304,-0.041918136179447174,-0.92333334684371948,0.078776836395263672,-1.6577403545379639,-0.18008586764335632,0.23552520573139191,-10.020886421203613,-0.18443985283374786,8
0.91093897819519043,-0.029180187731981277,-0.91093891859054565,0.11465919017791748,-1.5887092351913452,-0.11465942859649658,0.4359443187713623,-10.265185356140137,-0.43594589829444885,8
-0.92333334684371948,-0.04191787913441658,-0.70822316408157349,-0.18008354306221008,-1.6577384471893311,-0.078776024281978607,-0.1844380646944046,-10.020886421203613,-0.23552162945270538,8
-0.71605229377746582,-0.07740350067615509,-0.71605229377746582,-0.10798711329698563,-1.7898315191268921,-0.10798636823892593,-0.011510475538671017,-9.1083984375,-0.011510699056088924,8
-0.49830949306488037,-0.086122654378414154,-0.71285313367843628,0.00080528692342340946,-1.8406602144241333,-0.093541629612445831,-0.13032139837741852,-9.0250711441040039,-0.10120465606451035,8
-0.29647558927536011,-0.079733163118362427,-0.70503699779510498,0.025605959817767143,-1.8172463178634644,-0.054159369319677353,-0.017413124442100525,-9.2363824844360352,-0.24852621555328369,8
-0.09911298006772995,-0.076786935329437256,-0.7020074725151062,0.010271423496305943,-1.7975574731826782,-0.030990563333034515,0.036189086735248566,-9.2811145782470703,-0.25415784120559692,8
0.099112972617149353,-0.07678695023059845,-0.70200753211975098,-0.010271618142724037,-1.7975574731826782,-0.030990656465291977,-0.036190904676914215,-9.2811117172241211,-0.25415632128715515,8
0.29647558927536011,-0.079733170568943024,-0.70503699779510498,-0.025606350973248482,-1.8172465562820435,-0.054159991443157196,0.017410889267921448,-9.2363862991333008,-0.24852465093135834,8
0.49830946326255798,-0.086122825741767883,-0.71285313367843628,-0.00080590671859681606,-1.8406611680984497,-0.093542784452438354,0.13032059371471405,-9.0250682830810547,-0.10120443254709244,8
0.71605229377746582,-0.077404126524925232,-0.71605241298675537,0.10798709839582443,-1.7898341417312622,-0.10798751562833786,0.011510699056088924,-9.1083841323852539,-0.011512040160596371,8
0.92333334684371948,-0.041918136179447174,-0.70822328329086304,0.1800844818353653,-1.6577403545379639,-0.078776873648166656,0.18443851172924042,-10.020886421203613,-0.23552587628364563,8
-0.92787808179855347,-0.047306757420301437,-0.50128746032714844,-0.21029855310916901,-1.696202278137207,-0.016569597646594048,-0.14921574294567108,-9.9968500137329102,-0.096116311848163605,8
-0.71285313367843628,-0.086122214794158936,-0.49830940365791321,-0.093541763722896576,-1.8406579494476318,0.00080631393939256668,-0.10120443254709244,-9.0250749588012695,-0.13032042980194092,8
-0.48768490552902222,-0.076701067388057709,-0.48768481612205505,0.048691947013139725,-1.8239277601242065,0.0486927330493927,-0.36200755834579468,-9.4025115966796875,-0.36200666427612305,8
-0.28995627164840698,-0.055710773915052414,-0.48564761877059937,0.062923960387706757,-1.7674448490142822,0.046334840357303619,-0.24093477427959442,-10.060407638549805,-0.41103297472000122,8
-0.097063079476356506,-0.045802563428878784,-0.48268875479698181,0.025292133912444115,-1.7320722341537476,0.048933509737253189,-0.30743461847305298,-11.461028099060059,-1.5677258968353271,8
0.097062982618808746,-0.045802611857652664,-0.48268857598304749,-0.025292787700891495,-1.7320728302001953,0.04893624410033226,0.30744987726211548,-11.46104621887207,-1.5677722692489624,8
0.28995627164840698,-0.055710956454277039,-0.48564779758453369,-0.062924519181251526,-1.7674458026885986,0.046334367245435715,0.24092784523963928,-10.060428619384766,-0.41102516651153564,8
0.48768487572669983,-0.076701313257217407,-0.48768484592437744,-0.048692118376493454,-1.8239295482635498,0.04869263619184494,0.36200153827667236,-9.4025154113769531,-0.36200064420700073,8
0.71285313367843628,-0.086122781038284302,-0.49830940365791321,0.093541845679283142,-1.8406606912612915,0.00080631638411432505,0.10120443254709244,-9.0250644683837891,-0.13032025098800659,8
0.92787814140319824,-0.047307051718235016,-0.50128746032714844,0.2102990597486496,-1.6962043046951294,-0.016569621860980988,0.14921753108501434,-9.9968500137329102,-0.096117012202739716,8
-0.92703151702880859,-0.047240287065505981,-0.29945600032806396,-0.20396359264850616,-1.6963064670562744,0.0050127990543842316,-0.17065240442752838,-10.009592056274414,-0.00080381048610433936,8
-0.70503699779510498,-0.079732522368431091,-0.29647558927536011,-0.05415932834148407,-1.8172433376312256,0.025606408715248108,-0.24852676689624786,-9.2363967895507812,-0.01741139218211174,8
-0.48564764857292175,-0.055710595101118088,-0.28995627164840698,0.046334069222211838,-1.7674437761306763,0.062924288213253021,-0.41103687882423401,-10.060407638549805,-0.24093186855316162,8
-0.29200202226638794,-0.046251025050878525,-0.29200196266174316,0.048896163702011108,-1.8244173526763916,0.048898898065090179,-0.74537378549575806,-11.30625057220459,-0.74530339241027832,8
-0.093865163624286652,-0.033192578703165054,-0.29283547401428223,0.037370197474956512,-1.8127729892730713,0.06395324319601059,-1.3454033136367798,-15.660566329956055,-0.25103822350502014,8
0.093864835798740387,-0.033192802220582962,-0.292835533618927,-0.037374686449766159,-1.8127748966217041,0.063951082527637482,1.3452984094619751,-15.660645484924316,-0.25110840797424316,8
0.29200178384780884,-0.046251613646745682,-0.29200181365013123,-0.048900019377470016,-1.8244198560714722,0.048897754400968552,0.74540495872497559,-11.30638313293457,-0.74548274278640747,8
0.48564782738685608,-0.055710893124341965,-0.28995624184608459,-0.046333856880664825,-1.7674452066421509,0.062927111983299255,0.41102927923202515,-10.060428619384766,-0.24086861312389374,8
0.70503699779510498,-0.079732857644557953,-0.29647549986839294,0.054159514605998993,-1.8172453641891479,0.025606721639633179,0.24852621555328369,-9.236393928527832,-0.017409995198249817,8
0.92703151702880859,-0.047240495681762695,-0.29945600032806396,0.2039637416601181,-1.696307897567749,0.005012913141399622,0.17065374553203583,-10.009592056274414,-0.00080332154175266623,8
-0.92615789175033569,-0.046635773032903671,-0.099765278398990631,-0.19538368284702301,-1.6897776126861572,0.0030955721158534288,-0.15948905050754547,-9.9921789169311523,0.015899596735835075,8
-0.70200753211975098,-0.076786383986473083,-0.099112942814826965,-0.030990563333034515,-1.7975544929504395,0.010271430015563965,-0.2541576623916626,-9.2811183929443359,0.036188919097185135,8
-0.48268884420394897,-0.045802336186170578,-0.097063057124614716,0.048932880163192749,-1.7320700883865356,0.02529083751142025,-1.56772780418396,-11.461003303527832,-0.30747094750404358,8
-0.29283559322357178,-0.033192448318004608,-0.093865074217319489,0.063950113952159882,-1.8127696514129639,0.037371180951595306,-0.25111600756645203,-15.660484313964844,-1.3453890085220337,8
-0.096208430826663971,-0.025038227438926697,-0.096208378672599792,0.078948095440864563,-1.7055302858352661,0.078948967158794403,1.1552577018737793,-14.56978702545166,1.1552798748016357,8
0.096208207309246063,-0.025038439780473709,-0.09620840847492218,-0.078952200710773468,-1.7055325508117676,0.078948162496089935,-1.1553828716278076,-14.569858551025391,1.1552885770797729,8
0.29283556342124939,-0.033193111419677734,-0.093865014612674713,-0.063951641321182251,-1.8127754926681519,0.03737032413482666,0.25108537077903748,-15.660666465759277,-1.3454017639160156,8
0.4826887845993042,-0.045802652835845947,-0.097062990069389343,-0.048931419849395752,-1.7320730686187744,0.025291787460446358,1.5679032802581787,-11.461064338684082,-0.30747261643409729,8
0.7020074725151062,-0.076786600053310394,-0.099112927913665771,0.030990703031420708,-1.7975561618804932,0.010271613486111164,0.25416165590286255,-9.2811222076416016,0.03618992492556572,8
0.92615783214569092,-0.046635963022708893,-0.099765278398990631,0.19538366794586182,-1.6897788047790527,0.0030956096015870571,0.1594899445772171,-9.9921789169311523,0.015899995341897011,8
-0.92615789175033569,-0.046635761857032776,0.09976533055305481,-0.1953837126493454,-1.6897774934768677,-0.0030956459231674671,-0.15948905050754547,-9.9921789169311523,-0.015900503844022751,8
-0.70200753211975098,-0.07678629457950592,0.09911298006772995,-0.030990425497293472,-1.7975543737411499,-0.010271746665239334,-0.25415527820587158,-9.2811222076416016,-0.036192413419485092,8
-0.48268860578536987,-0.045802418142557144,0.097062982618808746,0.048932850360870361,-1.732072114944458,-0.025293802842497826,-1.5679165124893188,-11.461056709289551,0.30742669105529785,8
-0.29283556342124939,-0.033192761242389679,0.093864835798740387,0.063950613141059875,-1.8127754926681519,-0.037376195192337036,-0.25110930204391479,-15.660674095153809,1.3452622890472412,8
-0.096208423376083374,-0.025038460269570351,0.096208207309246063,0.078948870301246643,-1.7055329084396362,-0.078953132033348083,1.1553008556365967,-14.569866180419922,-1.1553969383239746,8
0.096208140254020691,-0.025038626044988632,0.096208155155181885,-0.078953862190246582,-1.7055351734161377,-0.078953854739665985,-1.1554281711578369,-14.569948196411133,-1.1554276943206787,8
0.29283556342124939,-0.033193271607160568,0.093864895403385162,-0.063954077661037445,-1.812779426574707,-0.037373393774032593,0.25103330612182617,-15.660834312438965,1.3453083038330078,8
0.48268887400627136,-0.045802704989910126,0.097063079476356506,-0.048929072916507721,-1.7320743799209595,-0.025291714817285538,1.5679638385772705,-11.461103439331055,0.30746158957481384,8
0.7020074725151062,-0.076786577701568604,0.099112972617149353,0.030990840867161751,-1.7975560426712036,-0.01027178019285202,0.25416359305381775,-9.2811222076416016,-0.0361897312104702,8
0.92615789175033569,-0.046635948121547699,0.099765315651893616,0.19538372755050659,-1.6897786855697632,-0.0030957350973039865,0.15949039161205292,-9.9921789169311523,-0.015900615602731705,8
-0.92703151702880859,-0.047240287065505981,0.29945605993270874,-0.20396360754966736,-1.6963064670562744,-0.0050129201263189316,-0.17065240442752838,-10.009592056274414,0.00080279068788513541,8
-0.70503699779510498,-0.079732604324817657,0.2964756190776825,-0.054159123450517654,-1.8172436952590942,-0.025606714189052582,-0.24852174520492554,-9.236393928527832,0.017408598214387894,8
-0.48564743995666504,-0.055710706859827042,0.28995633125305176,0.046337597072124481,-1.7674440145492554,-0.062925517559051514,-0.41106662154197693,-10.060421943664551,0.24092046916484833,8
-0.292001873254776,-0.046251505613327026,0.292001873254776,0.048897650092840195,-1.8244189023971558,-0.048899110406637192,-0.74547940492630005,-11.306368827819824,0.7454572319984436,8
-0.093865081667900085,-0.033193096518516541,0.29283562302589417,0.037370346486568451,-1.8127752542495728,-0.063952170312404633,-1.3454022407531738,-15.660659790039062,0.25108247995376587,8
0.093864865601062775,-0.033193252980709076,0.29283562302589417,-0.037373404949903488,-1.8127782344818115,-0.063954263925552368,1.345309853553772,-15.660799026489258,0.25103262066841125,8
0.29200193285942078,-0.04625190794467926,0.29200196266174316,-0.048896025866270065,-1.8244198560714722,-0.048896104097366333,0.74554109573364258,-11.306501388549805,0.74554210901260376,8
0.48564809560775757,-0.055710989981889725,0.28995630145072937,-0.046330474317073822,-1.76744544506073,-0.062926933169364929,0.41107890009880066,-10.060442924499512,0.24087107181549072,8
0.70503699779510498,-0.079732835292816162,0.29647555947303772,0.054159779101610184,-1.8172452449798584,-0.025606745854020119,0.24852810800075531,-9.236393928527832,0.017411001026630402,8
0.92703151702880859,-0.047240488231182098,0.29945605993270874,0.20396378636360168,-1.6963077783584595,-0.0050129787996411324,0.17065463960170746,-10.009592056274414,0.00080358696868643165,8
-0.92787808179855347,-0.04730677604675293,0.50128740072250366,-0.21029846370220184,-1.6962025165557861,0.016569254919886589,-0.14921484887599945,-9.9968538284301758,0.096115671098232269,8
-0.71285313367843628,-0.086122170090675354,0.49830928444862366,-0.093541592359542847,-1.8406580686569214,-0.00080697040539234877,-0.10120175033807755,-9.0250787734985352,0.13031938672065735,8
-0.48768490552902222,-0.076701097190380096,0.48768475651741028,0.048692580312490463,-1.8239279985427856,-0.04869355633854866,-0.36199492216110229,-9.4025049209594727,0.36199304461479187,8
-0.28995624184608459,-0.055710870772600174,0.48564738035202026,0.062926806509494781,-1.7674449682235718,-0.046338491141796112,-0.24086682498455048,-10.060428619384766,0.41106808185577393,8
-0.097063057124614716,-0.045802649110555649,0.48268857598304749,0.025291599333286285,-1.732073187828064,-0.048933845013380051,-0.30747479200363159,-11.461071014404297,1.5679059028625488,8
0.097063004970550537,-0.045802697539329529,0.48268887400627136,-0.025292646139860153,-1.7320736646652222,-0.048929423093795776,0.3074488639831543,-11.461082458496094,1.5679614543914795,8
0.28995624184608459,-0.055711012333631516,0.48564809560775757,-0.062926970422267914,-1.7674456834793091,-0.046330682933330536,0.24086995422840118,-10.060442924499512,0.41107901930809021,8
0.48768502473831177,-0.07670130580663681,0.48768502473831177,-0.048690814524888992,-1.8239293098449707,-0.048690762370824814,0.36198329925537109,-9.4025077819824219,0.36198374629020691,8
0.71285313367843628,-0.086122661828994751,0.4983094334602356,0.093541979789733887,-1.8406603336334229,-0.00080595933832228184,0.10120577365159988,-9.0250711441040039,0.13032101094722748,8
0.92787814140319824,-0.047307007014751434,0.50128746032714844,0.21029902994632721,-1.6962040662765503,0.016569741070270538,0.14921753108501434,-9.9968500137329102,0.096117176115512848,8
-0.92333334684371948,-0.041917882859706879,0.70822310447692871,-0.18008337914943695,-1.6577385663986206,0.078775361180305481,-0.18443672358989716,-10.020886421203613,0.23552162945270538,8
-0.71605229377746582,-0.077403604984283447,0.71605163812637329,-0.10798678547143936,-1.7898318767547607,0.10798382759094238,-0.01150913443416357,-9.1083955764770508,0.011527462862432003,8
-0.49830946326255798,-0.086122579872608185,0.71285301446914673,0.00080598564818501472,-1.840659499168396,0.093540340662002563,-0.13031885027885437,-9.0250682830810547,0.10120063275098801,8
-0.29647558927536011,-0.079732909798622131,0.70503693819046021,0.025606421753764153,-1.8172452449798584,0.054158203303813934,-0.017410498112440109,-9.236393928527832,0.24852085113525391,8
-0.09911298006772995,-0.076786749064922333,0.7020074725151062,0.010271479375660419,-1.7975562810897827,0.030990106984972954,0.036189004778862,-9.2811145782470703,0.2541576623916626,8
0.099112927913665771,-0.07678668200969696,0.70200753211975098,-0.010271926410496235,-1.7975565195083618,0.030990675091743469,-0.03619065135717392,-9.2811222076416016,0.25416257977485657,8
0.29647549986839294,-0.079733051359653473,0.70503705739974976,-0.025606825947761536,-1.8172458410263062,0.054159857332706451,0.017410162836313248,-9.2363862991333008,0.24852822721004486,8
0.4983094334602356,-0.086122781038284302,0.71285319328308105,-0.00080604501999914646,-1.8406606912612915,0.09354284405708313,0.13032011687755585,-9.0250644683837891,0.10120532661676407,8
0.71605229377746582,-0.077403895556926727,0.71605253219604492,0.10798706114292145,-1.7898331880569458,0.1079876720905304,0.011510475538671017,-9.1083879470825195,0.011512040160596371,8
0.92333334684371948,-0.041917990893125534,0.70822334289550781,0.18008437752723694,-1.657739520072937,0.078776895999908447,0.1844380646944046,-10.020886421203613,0.23552587628364563,8
-0.91093897819519043,-0.029180090874433517,0.91093891859054565,-0.11465819925069809,-1.5887080430984497,0.11465781927108765,-0.43593940138816833,-10.265177726745605,0.43593695759773254,8
-0.70822316408157349,-0.04191792756319046,0.92333304882049561,-0.078776367008686066,-1.6577389240264893,0.18008287250995636,-0.23552185297012329,-10.020886421203613,0.18443448841571808,8
-0.50128746032714844,-0.047306984663009644,0.92787802219390869,-0.016569741070270538,-1.6962037086486816,0.21029806137084961,-0.096116617321968079,-9.9968500137329102,0.14921306073665619,8
-0.29945600032806396,-0.047240495681762695,0.92703139781951904,0.0050127850845456123,-1.6963077783584595,0.20396308600902557,-0.00080390827497467399,-10.009588241577148,0.17065061628818512,8
-0.099765315651893616,-0.04663597047328949,0.92615777254104614,0.003095570020377636,-1.6897788047790527,0.19538334012031555,0.015899596735835075,-9.9921760559082031,0.15948770940303802,8
0.099765285849571228,-0.046635974198579788,0.92615789175033569,-0.0030957930721342564,-1.6897789239883423,0.19538399577140808,-0.015900846570730209,-9.9921789169311523,0.15949039161205292,8
0.29945600032806396,-0.047240518033504486,0.92703187465667725,-0.0050130081363022327,-1.696307897567749,0.20396561920642853,0.00080341933062300086,-10.009588241577148,0.17065553367137909,8
0.50128746032714844,-0.047307007014751434,0.92787909507751465,0.016569714993238449,-1.6962039470672607,0.21030309796333313,0.096116840839385986,-9.9968500137329102,0.14919741451740265,8
0.70822328329086304,-0.041918005794286728,0.92333334684371948,0.078776724636554718,-1.6577396392822266,0.18008579313755035,0.23552408814430237,-10.020886421203613,0.18443895876407623,8
0.91093897819519043,-0.029180131852626801,0.91093891859054565,0.11465901136398315,-1.588708758354187,0.11465926468372345,0.43594297766685486,-10.265181541442871,0.43594521284103394,8
-0.92420578002929688,0.172981858253479,-0.92420566082000732,-0.19136177003383636,-1.5594663619995117,-0.19136103987693787,-0.24360044300556183,-10.09260082244873,-0.24359776079654694,8
-0.71858006715774536,0.16275405883789062,-0.961098313331604,-0.12910619378089905,-1.6055994033813477,-0.33202823996543884,-0.041876878589391708,-9.8496789932250977,0.68560117483139038,8
-0.50235122442245483,0.15868483483791351,-0.97464436292648315,-0.026068355888128281,-1.6326427459716797,-0.40626251697540283,-0.11024302989244461,-9.8312826156616211,0.83983355760574341,8
-0.29929846525192261,0.1585843563079834,-0.97380727529525757,0.0040018158033490181,-1.6343861818313599,-0.40667882561683655,-0.036319427192211151,-9.8414821624755859,0.72793805599212646,8
-0.099720224738121033,0.15888498723506927,-0.97277301549911499,0.002890545642003417,-1.6310356855392456,-0.40012997388839722,0.0053217536769807339,-9.8304958343505859,0.68927580118179321,8
0.099720217287540436,0.15888498723506927,-0.97277301549911499,-0.0028906683437526226,-1.6310356855392456,-0.40013006329536438,-0.0053231995552778244,-9.8304958343505859,0.68927580118179321,8
0.29929840564727783,0.15858440101146698,-0.97380733489990234,-0.0040027350187301636,-1.6343860626220703,-0.40667957067489624,0.03631872683763504,-9.8414821624755859,0.72793537378311157,8
0.50235038995742798,0.15868483483791351,-0.97464460134506226,0.026065446436405182,-1.6326426267623901,-0.40626466274261475,0.11026269942522049,-9.8312826156616211,0.83983176946640015,8
0.71857994794845581,0.16275399923324585,-0.96109932661056519,0.12910568714141846,-1.6055995225906372,-0.33203279972076416,0.041877772659063339,-9.8496789932250977,0.685619056224823,8
0.92420589923858643,0.17298178374767303,-0.92420583963394165,0.19136351346969604,-1.5594669580459595,-0.19136366248130798,0.24359865486621857,-10.09260082244873,-0.24359999597072601,8
-0.96109837293624878,0.16275419294834137,-0.71857976913452148,-0.33202844858169556,-1.6055986881256104,-0.12910455465316772,0.68560117483139038,-9.8496789932250977,-0.041877325624227524,8
-0.74571079015731812,0.13114190101623535,-0.74570995569229126,-0.21644841134548187,-1.7157436609268188,-0.2164452075958252,0.67998868227005005,-9.0512857437133789,0.67997032403945923,8
-0.49292838573455811,0.12549453973770142,-0.73308908939361572,0.011509113945066929,-1.7661252021789551,-0.17955321073532104,-0.30811670422554016,-9.16241455078125,0.28166189789772034,8
-0.29200047254562378,0.12830080091953278,-0.709675133228302,0.043370235711336136,-1.7556028366088867,-0.082682609558105469,-0.14947760105133057,-9.2746562957763672,-0.23348493874073029,8
-0.098553501069545746,0.1291881799697876,-0.70250493288040161,0.015476846136152744,-1.747126579284668,-0.039798039942979813,0.03241444006562233,-9.2700929641723633,-0.33370131254196167,8
0.098553486168384552,0.1291881799697876,-0.70250493288040161,-0.015476997010409832,-1.7471264600753784,-0.039798200130462646,-0.032415136694908142,-9.2700929641723633,-0.33370059728622437,8
0.292000412940979,0.12830086052417755,-0.70967525243759155,-0.043370809406042099,-1.7556024789810181,-0.082683295011520386,0.14947670698165894,-9.2746562957763672,-0.23348382115364075,8
0.49292781949043274,0.12549489736557007,-0.73308932781219482,-0.011511462740600109,-1.7661243677139282,-0.17955458164215088,0.30812546610832214,-9.1624250411987305,0.28166055679321289,8
0.74571079015731812,0.13114146888256073,-0.74571079015731812,0.21644818782806396,-1.7157450914382935,-0.21644838154315948,-0.67998731136322021,-9.0512781143188477,0.67998600006103516,8
0.96109920740127563,0.16275399923324585,-0.71857994794845581,0.33203163743019104,-1.6055995225906372,-0.12910565733909607,-0.68562084436416626,-9.8496789932250977,-0.04187866672873497,8
-0.97464370727539062,0.15868531167507172,-0.50235038995742798,-0.40625923871994019,-1.6326408386230469,-0.026065129786729813,0.83981478214263916,-9.8312931060791016,-0.11026158183813095,8
-0.7330891489982605,0.12549535930156708,-0.49292781949043274,-0.17955367267131805,-1.7661217451095581,0.011512059718370438,0.28166234493255615,-9.1624250411987305,-0.30812880396842957,8
-0.46047919988632202,0.14785069227218628,-0.46047839522361755,0.11102866381406784,-1.6930445432662964,0.11103171855211258,-0.73194551467895508,-9.8220481872558594,-0.7319633960723877,8
-0.27574002742767334,0.15886922180652618,-0.4617755115032196,0.094652146100997925,-1.6515650749206543,0.017098216339945793,-1.7314033508300781,-10.252546310424805,-1.066380500793457,8
-0.091155380010604858,0.16126705706119537,-0.4495844841003418,0.037660647183656693,-1.6334061622619629,9.8233111202716827e-05,-2.2708446979522705,-10.41458797454834,-6.6809978485107422,8
0.091155141592025757,0.16126711666584015,-0.44958454370498657,-0.037661843001842499,-1.6334054470062256,9.5728784799575806e-05,2.2707829475402832,-10.414594650268555,-6.6811490058898926,8
0.27574032545089722,0.15886937081813812,-0.4617760181427002,-0.094648607075214386,-1.651563286781311,0.017095424234867096,1.7315131425857544,-10.252557754516602,-1.0666289329528809,8
0.46047884225845337,0.14785067737102509,-0.46047830581665039,-0.11103123426437378,-1.6930443048477173,0.11103467643260956,0.73196721076965332,-9.8220481872558594,-0.73200339078903198,8
0.7330891489982605,0.12549491226673126,-0.4929274320602417,0.17955353856086731,-1.7661241292953491,0.011512979865074158,-0.28166279196739197,-9.1624250411987305,-0.30813398957252502,8
0.9746437668800354,0.15868483483791351,-0.50235038995742798,0.40626019239425659,-1.6326427459716797,-0.026065148413181305,-0.8398129940032959,-9.8312826156616211,-0.11026264727115631,8
-0.97380632162094116,0.15858444571495056,-0.29929840564727783,-0.40667435526847839,-1.634385347366333,0.0040027573704719543,0.72792375087738037,-9.8414821624755859,-0.036317776888608932,8
-0.709675133228302,0.12830093502998352,-0.29200044274330139,-0.082682579755783081,-1.7556010484695435,0.043370716273784637,-0.23348739743232727,-9.2746486663818359,-0.14947693049907684,8
-0.46177595853805542,0.15886926651000977,-0.27574053406715393,0.017095144838094711,-1.6515648365020752,0.094648629426956177,-1.0664533376693726,-10.252546310424805,-1.7314203977584839,8
-0.27569219470024109,0.15969599783420563,-0.27569180727005005,0.085517376661300659,-1.8182018995285034,0.085525721311569214,-4.4185395240783691,-9.7884283065795898,-4.418358325958252,8
-0.083887942135334015,0.16014310717582703,-0.2837890088558197,0.017118265852332115,-1.8132731914520264,0.18126587569713593,-6.2060904502868652,-9.1459455490112305,1.314017653465271,8
0.083887234330177307,0.16014251112937927,-0.28378906846046448,-0.017122434452176094,-1.8132730722427368,0.1812664270401001,6.2059149742126465,-9.1460676193237305,1.3140838146209717,8
0.27569162845611572,0.15969426929950714,-0.27569210529327393,-0.085521124303340912,-1.8181928396224976,0.085519783198833466,4.4185571670532227,-9.788142204284668,-4.418494701385498,8
0.46177613735198975,0.15886935591697693,-0.2757398784160614,-0.017096869647502899,-1.6515631675720215,0.094650603830814362,1.0665493011474609,-10.252553939819336,-1.7315484285354614,8
0.709675133228302,0.12830087542533875,-0.29200026392936707,0.082682780921459198,-1.7556020021438599,0.043371453881263733,0.23348605632781982,-9.2746486663818359,-0.14947792887687683,8
0.97380632162094116,0.1585843414068222,-0.29929840564727783,0.40667471289634705,-1.6343863010406494,0.0040029608644545078,-0.72792106866836548,-9.8414859771728516,-0.036318030208349228,8
-0.97277295589447021,0.15888503193855286,-0.099720194935798645,-0.40012836456298828,-1.631035327911377,0.002890576608479023,0.68928205966949463,-9.8304958343505859,0.0053228153847157955,8
-0.70250505208969116,0.12918826937675476,-0.098553471267223358,-0.039798159152269363,-1.7471253871917725,0.015476571395993233,-0.33369925618171692,-9.270085334777832,0.03241407498717308,8
-0.44958478212356567,0.16126705706119537,-0.091155394911766052,0.00010130554437637329,-1.633406400680542,0.037659108638763428,-6.680872917175293,-10.414594650268555,-2.2708818912506104,8
-0.28378918766975403,0.16014313697814941,-0.083887889981269836,0.18126241862773895,-1.8132731914520264,0.017118819057941437,1.3139529228210449,-9.1458740234375,-6.2060761451721191,8
-0.090337969362735748,0.15970242023468018,-0.090337827801704407,0.18775278329849243,-1.8166353702545166,0.18775629997253418,2.7832300662994385,-8.9336156845092773,2.7833273410797119,8
0.090337157249450684,0.1597016304731369,-0.090337797999382019,-0.18776053190231323,-1.8166345357894897,0.18775561451911926,-2.7833755016326904,-8.9336118698120117,2.7833504676818848,8
0.28378885984420776,0.16014105081558228,-0.083887971937656403,-0.18126536905765533,-1.8132772445678711,0.01711631566286087,-1.3140056133270264,-9.1463823318481445,-6.2060232162475586,8
0.44958528876304626,0.16126716136932373,-0.091155312955379486,-9.7490847110748291e-05,-1.6334037780761719,0.037659332156181335,6.6810302734375,-10.414555549621582,-2.2708213329315186,8
0.70250505208969116,0.12918820977210999,-0.098553456366062164,0.039798572659492493,-1.7471259832382202,0.015476866625249386,0.33370965719223022,-9.2700891494750977,0.032412230968475342,8
0.97277295589447021,0.15888500213623047,-0.099720187485218048,0.40012854337692261,-1.6310354471206665,0.0028906252700835466,-0.68928027153015137,-9.8304958343505859,0.0053229480981826782,8
-0.97277295589447021,0.15888503193855286,0.099720239639282227,-0.40012845396995544,-1.631035327911377,-0.0028906997758895159,0.689281165599823,-9.8304958343505859,-0.0053235907107591629,8
-0.70250505208969116,0.12918859720230103,0.098553501069545746,-0.039798226207494736,-1.7471245527267456,-0.015477226115763187,-0.33369714021682739,-9.2700929641723633,-0.032417986541986465,8
-0.44958522915840149,0.16126711666584015,0.091155126690864563,9.5277093350887299e-05,-1.633405327796936,-0.037664659321308136,-6.6810641288757324,-10.414591789245605,2.2706830501556396,8
-0.28378918766975403,0.16014254093170166,0.083887189626693726,0.18126751482486725,-1.8132730722427368,-0.017126927152276039,1.3141553401947021,-9.14599609375,6.2057819366455078,8
-0.090337879955768585,0.1597016304731369,0.090337179601192474,0.18775616586208344,-1.8166345357894897,-0.18776194751262665,2.7833890914916992,-8.9336118698120117,-2.7834315299987793,8
0.090337097644805908,0.15970079600811005,0.09033714234828949,-0.18776383996009827,-1.8166334629058838,-0.18776318430900574,-2.7835433483123779,-8.9336042404174805,-2.783524751663208,8
0.28378871083259583,0.16014045476913452,0.083887480199337006,-0.18127110600471497,-1.8132771253585815,-0.017122868448495865,-1.314117431640625,-9.1465072631835938,6.2057228088378906,8
0.44958540797233582,0.16126716136932373,0.091155193746089935,-9.3759037554264069e-05,-1.6334033012390137,-0.037661902606487274,6.6812562942504883,-10.414541244506836,2.270716667175293,8
0.70250499248504639,0.12918855249881744,0.098553426563739777,0.039798568934202194,-1.7471249103546143,-0.015477445907890797,0.333708256483078,-9.2700929641723633,-0.032411422580480576,8
0.97277295589447021,0.15888503193855286,0.099720217287540436,0.40012851357460022,-1.631035327911377,-0.0028908795211464167,-0.68928027153015137,-9.8304958343505859,-0.0053235278464853764,8
-0.97380632162094116,0.15858444571495056,0.29929846525192261,-0.40667447447776794,-1.6343854665756226,-0.0040028602816164494,0.72792285680770874,-9.8414821624755859,0.036317385733127594,8
-0.709675133228302,0.12830093502998352,0.292000412940979,-0.082682512700557709,-1.7556010484695435,-0.043371286243200302,-0.23347979784011841,-9.2746486663818359,0.1494729071855545,8
-0.46177634596824646,0.15886959433555603,0.27573984861373901,0.017096450552344322,-1.6515614986419678,-0.094653382897377014,-1.066562294960022,-10.252574920654297,1.7314651012420654,8
-0.2756921648979187,0.15969423949718475,0.27569147944450378,0.085518866777420044,-1.8181935548782349,-0.085523299872875214,-4.418489933013916,-9.7882347106933594,4.4185643196105957,8
-0.083888053894042969,0.16014108061790466,0.28378885984420776,0.017117755487561226,-1.8132772445678711,-0.18126580119132996,-6.2059674263000488,-9.1463146209716797,-1.3140074014663696,8
0.083887450397014618,0.16014048457145691,0.28378880023956299,-0.017122935503721237,-1.8132771253585815,-0.18126893043518066,6.2057209014892578,-9.1464357376098633,-1.3140476942062378,8
0.27569180727005005,0.15969255566596985,0.27569171786308289,-0.085520155727863312,-1.818182110786438,-0.085518807172775269,4.4185528755187988,-9.7878808975219727,4.4186406135559082,8
0.4617762565612793,0.15886954963207245,0.27573996782302856,-0.017101068049669266,-1.6515599489212036,-0.094651073217391968,1.0666369199752808,-10.252532005310059,1.7315415143966675,8
0.709675133228302,0.12830089032649994,0.29200005531311035,0.082682713866233826,-1.7556016445159912,-0.043372172862291336,0.23347935080528259,-9.2746486663818359,0.14948676526546478,8
0.97380632162094116,0.15858440101146698,0.29929843544960022,0.40667474269866943,-1.6343860626220703,-0.0040030996315181255,-0.72792017459869385,-9.8414821624755859,0.036318559199571609,8
-0.97464364767074585,0.15868531167507172,0.50235038995742798,-0.40625911951065063,-1.6326408386230469,0.026065053418278694,0.83981478214263916,-9.8312931060791016,0.1102607473731041,8
-0.7330891489982605,0.12549507617950439,0.49292781949043274,-0.17955315113067627,-1.7661226987838745,-0.011512248776853085,0.28166636824607849,-9.1624221801757812,0.30812424421310425,8
-0.4604790210723877,0.14785084128379822,0.46047854423522949,0.11103306710720062,-1.6930428743362427,-0.11103551834821701,-0.73199313879013062,-9.8220453262329102,0.73199379444122314,8
-0.27574005722999573,0.15886953473091125,0.46177583932876587,0.094649821519851685,-1.6515616178512573,-0.017099371179938316,-1.7315455675125122,-10.252568244934082,1.0665537118911743,8
-0.091155409812927246,0.16126719117164612,0.44958525896072388,0.037658978253602982,-1.6334033012390137,-9.8289921879768372e-05,-2.2708160877227783,-10.414551734924316,6.6810288429260254,8
0.091155141592025757,0.16126719117164612,0.44958534836769104,-0.037662100046873093,-1.6334030628204346,-9.6295028924942017e-05,2.2707154750823975,-10.414545059204102,6.6811866760253906,8
0.27573990821838379,0.15886954963207245,0.46177619695663452,-0.094651110470294952,-1.6515599489212036,-0.017101369798183441,1.7315404415130615,-10.252535820007324,1.0666381120681763,8
0.46047866344451904,0.14785079658031464,0.46047866344451904,-0.11103505641222,-1.6930420398712158,-0.11103512346744537,0.73209351301193237,-9.8220481872558594,0.7320936918258667,8
0.7330891489982605,0.12549491226673126,0.49292781949043274,0.17955349385738373,-1.7661240100860596,-0.011511816643178463,-0.28166547417640686,-9.1624250411987305,0.30812323093414307,8
0.9746437668800354,0.15868483483791351,0.50235038995742798,0.40626010298728943,-1.6326426267623901,0.026065319776535034,-0.83981388807296753,-9.8312864303588867,0.11026202887296677,8
-0.96109837293624878,0.16275420784950256,0.71857982873916626,-0.33202791213989258,-1.6055982112884521,0.1291043609380722,0.68560296297073364,-9.8496789932250977,0.041875984519720078,8
-0.74571073055267334,0.13114194571971893,0.74570995569229126,-0.21644742786884308,-1.7157431840896606,0.21644465625286102,0.67998778820037842,-9.0512857437133789,-0.67997300624847412,8
-0.49292784929275513,0.12549498677253723,0.73308885097503662,0.011511495336890221,-1.7661234140396118,0.1795513927936554,-0.30812248587608337,-9.1624250411987305,-0.28166547417640686,8
-0.29200032353401184,0.12830092012882233,0.70967447757720947,0.043371178209781647,-1.7556012868881226,0.08267965167760849,-0.14947792887687683,-9.2746486663818359,0.23350080847740173,8
-0.098553478717803955,0.12918861210346222,0.70250493288040161,0.015476889908313751,-1.7471243143081665,0.039797741919755936,0.032410752028226852,-9.2700967788696289,0.33370679616928101,8
0.098553314805030823,0.12918861210346222,0.70250499248504639,-0.015477791428565979,-1.7471244335174561,0.039798129349946976,-0.032409410923719406,-9.2700996398925781,0.33370691537857056,8
0.29199999570846558,0.12830090522766113,0.70967447757720947,-0.043372530490159988,-1.7556015253067017,0.082680843770503998,0.1494857519865036,-9.2746486663818359,0.23349611461162567,8
0.49292781949043274,0.12549491226673126,0.7330893874168396,-0.011511912569403648,-1.7661240100860596,0.17955423891544342,0.3081226646900177,-9.1624250411987305,-0.28166413307189941,8
0.74571079015731812,0.13114157319068909,0.74571084976196289,0.21644796431064606,-1.7157447338104248,0.21644841134548187,-0.67998868227005005,-9.0512752532958984,-0.67998778820037842,8
0.96109914779663086,0.16275405883789062,0.71858000755310059,0.33203116059303284,-1.6055992841720581,0.12910546362400055,-0.68562173843383789,-9.8496789932250977,0.041878219693899155,8
-0.9242057204246521,0.17298190295696259,0.92420566082000732,-0.19136124849319458,-1.5594658851623535,0.19136132299900055,-0.24359686672687531,-10.092597961425781,0.24359463155269623,8
-0.71857976913452148,0.16275420784950256,0.96109884977340698,-0.12910488247871399,-1.6055984497070312,0.33202940225601196,-0.041875984519720078,-9.8496789932250977,-0.68562263250350952,8
-0.50235038995742798,0.15868487954139709,0.97464358806610107,-0.026065327227115631,-1.6326422691345215,0.40625888109207153,-0.11026113480329514,-9.8312826156616211,-0.83981746435165405,8
-0.29929840564727783,0.15858441591262817,0.97380614280700684,0.0040029180236160755,-1.6343858242034912,0.40667390823364258,-0.036318182945251465,-9.8414821624755859,-0.72792285680770874,8
-0.099720209836959839,0.15888506174087524,0.97277283668518066,0.0028907209634780884,-1.6310350894927979,0.40012779831886292,0.0053226128220558167,-9.8304958343505859,-0.68928205966949463,8
0.099720194935798645,0.15888506174087524,0.97277289628982544,-0.0028909847605973482,-1.6310350894927979,0.40012833476066589,-0.0053231995552778244,-9.8304958343505859,-0.68928027153015137,8
0.29929837584495544,0.15858441591262817,0.97380715608596802,-0.0040031680837273598,-1.6343857049942017,0.4066779613494873,0.036318548023700714,-9.8414821624755859,-0.72793716192245483,8
0.50235038995742798,0.15868483483791351,0.97464460134506226,0.026065260171890259,-1.632642388343811,0.4062640368938446,0.11026141792535782,-9.8312826156616211,-0.83983266353607178,8
0.71857988834381104,0.16275399923324585,0.96109926700592041,0.12910529971122742,-1.6055994033813477,0.33203229308128357,0.041876878589391708,-9.8496789932250977,-0.68562084436416626,8
0.92420578002929688,0.17298178374767303,0.9242057204246521,0.191362664103508,-1.5594668388366699,0.19136281311511993,0.24359865486621857,-10.09260082244873,0.24359999597072601,8
-0.9309963583946228,0.37935090065002441,-0.93099617958068848,-0.24640725553035736,-1.5043612718582153,-0.24640642106533051,-0.28982114791870117,-9.9899797439575195,-0.28981846570968628,8
-0.72340136766433716,0.37791746854782104,-0.97781771421432495,-0.16533313691616058,-1.5145515203475952,-0.43501752614974976,-0.069339126348495483,-9.967320442199707,0.80632919073104858,8
-0.50300639867782593,0.37731170654296875,-0.99494606256484985,-0.033779032528400421,-1.5211738348007202,-0.53695482015609741,-0.14197255671024323,-9.9915285110473633,0.91543608903884888,8
-0.29939833283424377,0.37715178728103638,-0.99456202983856201,0.002092418959364295,-1.5232881307601929,-0.54448854923248291,-0.052218060940504074,-10.002206802368164,0.7519572377204895,8
-0.099783904850482941,0.37706413865089417,-0.9938240647315979,0.0022731744684278965,-1.5239834785461426,-0.54117083549499512,0.0027639113832265139,-10.001852989196777,0.7036166787147522,8
0.099783927202224731,0.37706413865089417,-0.9938240647315979,-0.0022730412892997265,-1.5239834785461426,-0.54117089509963989,-0.0027654760051518679,-10.001852989196777,0.70361489057540894,8
0.29939833283424377,0.37715178728103638,-0.99456202983856201,-0.0020929728634655476,-1.5232880115509033,-0.54448884725570679,0.052216298878192902,-10.00221061706543,0.75195366144180298,8
0.50300616025924683,0.37731170654296875,-0.99494612216949463,0.033777624368667603,-1.5211734771728516,-0.5369560718536377,0.14197389781475067,-9.9915285110473633,0.91543430089950562,8
0.72340136766433716,0.37791746854782104,-0.97781872749328613,0.16533291339874268,-1.5145512819290161,-0.4350220263004303,0.069338679313659668,-9.967320442199707,0.8063470721244812,8
0.93099707365036011,0.3793509304523468,-0.93099701404571533,0.2464103102684021,-1.5043610334396362,-0.2464103102684021,0.28979656100273132,-9.9899759292602539,-0.28979745507240295,8
-0.9778178334236145,0.37791746854782104,-0.72340124845504761,-0.43501767516136169,-1.5145514011383057,-0.16533170640468597,0.80633187294006348,-9.967320442199707,-0.069338232278823853,8
-0.75491493940353394,0.37615096569061279,-0.75491398572921753,-0.28677141666412354,-1.5284159183502197,-0.28676733374595642,0.60457074642181396,-9.9294443130493164,0.60455465316772461,8
-0.49033859372138977,0.37867087125778198,-0.72798579931259155,0.025322647765278816,-1.5280042886734009,-0.1894608736038208,-0.34052056074142456,-10.092371940612793,-0.037837918847799301,8
-0.29360887408256531,0.37592446804046631,-0.70606338977813721,0.048557482659816742,-1.536584734916687,-0.067085124552249908,-0.027998348698019981,-10.042454719543457,-0.30858677625656128,8
-0.098820462822914124,0.37440246343612671,-0.70138120651245117,0.014686888083815575,-1.543682336807251,-0.024506723508238792,0.063126370310783386,-9.9900302886962891,-0.22945179045200348,8
0.098820514976978302,0.37440252304077148,-0.70138120651245117,-0.014686604030430317,-1.5436820983886719,-0.024506833404302597,-0.063128218054771423,-9.9900331497192383,-0.22945347428321838,8
0.29360911250114441,0.37592485547065735,-0.70606344938278198,-0.048557799309492111,-1.5365833044052124,-0.067085616290569305,0.027987284585833549,-10.042465209960938,-0.30859348177909851,8
0.49033764004707336,0.3786713182926178,-0.72798579931259155,-0.025326622650027275,-1.5280025005340576,-0.18946121633052826,0.34053730964660645,-10.09238338470459,-0.037838812917470932,8
0.75491428375244141,0.37615132331848145,-0.75491428375244141,0.28676965832710266,-1.5284147262573242,-0.28676962852478027,-0.60454928874969482,-9.9294548034667969,0.60454928874969482,8
0.97781866788864136,0.37791746854782104,-0.72340136766433716,0.43502151966094971,-1.5145511627197266,-0.16533282399177551,-0.80634975433349609,-9.9673166275024414,-0.069338679313659668,8
-0.9949457049369812,0.37731170654296875,-0.50300616025924683,-0.53695195913314819,-1.5211734771728516,-0.033777400851249695,0.91544145345687866,-9.9915285110473633,-0.1419718861579895,8
-0.7279859185218811,0.37867093086242676,-0.49033764004707336,-0.18946199119091034,-1.5280039310455322,0.025326978415250778,-0.037837471812963486,-10.092371940612793,-0.34053850173950195,8
-0.44195613265037537,0.39309290051460266,-0.44195511937141418,0.24847516417503357,-1.4693127870559692,0.2484794557094574,-1.0423171520233154,-10.909984588623047,-1.0423358678817749,8
-0.2794376015663147,0.38949215412139893,-0.4252295196056366,0.16170227527618408,-1.4441951513290405,0.31153050065040588,-0.1836557537317276,-10.963710784912109,-1.4336737394332886,8
-0.095241867005825043,0.3817044198513031,-0.41567406058311462,0.043382808566093445,-1.4326642751693726,0.37498024106025696,-0.48501399159431458,-8.426814079284668,-2.6730375289916992,8
0.095241904258728027,0.38170447945594788,-0.41567397117614746,-0.043381653726100922,-1.4326649904251099,0.37498179078102112,0.48502618074417114,-8.4268169403076172,-2.673058032989502,8
0.27943769097328186,0.38949209451675415,-0.42522948980331421,-0.16169968247413635,-1.4441972970962524,0.31153193116188049,0.18369732797145844,-10.963679313659668,-1.4337059259414673,8
0.44195568561553955,0.39309301972389221,-0.44195517897605896,-0.24847760796546936,-1.4693130254745483,0.24847973883152008,1.0423287153244019,-10.909992218017578,-1.0423434972763062,8
0.72798579931259155,0.3786713182926178,-0.49033752083778381,0.18946099281311035,-1.5280027389526367,0.025327308103442192,0.037838812917470932,-10.09238338470459,-0.34053730964660645,8
0.99494612216949463,0.37731170654296875,-0.50300616025924683,0.53695434331893921,-1.5211734771728516,-0.033777490258216858,-0.91543608903884888,-9.9915285110473633,-0.14197356998920441,8
-0.99456077814102173,0.37715178728103638,-0.29939833283424377,-0.54448306560516357,-1.5232881307601929,0.0020927770528942347,0.75194472074508667,-10.002206802368164,-0.052214302122592926,8
-0.70606344938278198,0.37592446804046631,-0.29360944032669067,-0.067085802555084229,-1.536584734916687,0.048556964844465256,-0.30859258770942688,-10.042454719543457,-0.027975438162684441,8
-0.42523017525672913,0.38949212431907654,-0.27943742275238037,0.31152859330177307,-1.4441958665847778,0.16170357167720795,-1.4336057901382446,-10.963718414306641,-0.18365351855754852,8
0.42523002624511719,0.38949215412139893,-0.27943751215934753,-0.31153157353401184,-1.4441953897476196,0.16170269250869751,1.4336245059967041,-10.963614463806152,-0.18364100158214569,8
0.70606350898742676,0.37592446804046631,-0.29360908269882202,0.067085601389408112,-1.5365846157073975,0.048558004200458527,0.30859383940696716,-10.042454719543457,-0.027986502274870872,8
0.99456101655960083,0.37715178728103638,-0.29939833283424377,0.54448467493057251,-1.5232881307601929,0.0020929940510541201,-0.75193935632705688,-10.002206802368164,-0.052215497940778732,8
-0.99382388591766357,0.37706410884857178,-0.099783934652805328,-0.54116886854171753,-1.5239840745925903,0.0022728114854544401,0.70362383127212524,-10.001852989196777,0.0027659160550683737,8
-0.70138120651245117,0.37440204620361328,-0.098820611834526062,-0.024507002905011177,-1.5436840057373047,0.014685921370983124,-0.22945201396942139,-9.9900226593017578,0.063131600618362427,8
-0.41567465662956238,0.38170427083969116,-0.095241904258728027,0.37497681379318237,-1.4326659440994263,0.0433824323117733,-2.6730303764343262,-8.4268245697021484,-0.48501443862915039,8
0.41567468643188477,0.38170450925827026,-0.0952419713139534,-0.37497988343238831,-1.4326664209365845,0.043380718678236008,2.6730294227600098,-8.4268426895141602,-0.48501008749008179,8
0.70138126611709595,0.37440213561058044,-0.098820604383945465,0.024506999179720879,-1.5436835289001465,0.014686138369143009,0.22945341467857361,-9.9900188446044922,0.06312955915927887,8
0.99382400512695312,0.37706410884857178,-0.099783904850482941,0.54116970300674438,-1.5239835977554321,0.0022728780750185251,-0.70361846685409546,-10.001852989196777,0.0027651966083794832,8
-0.99382388591766357,0.37706384062767029,0.099783949553966522,-0.54116916656494141,-1.5239849090576172,-0.002273110905662179,0.70362383127212524,-10.001842498779297,-0.0027658531907945871,8
-0.70138120651245117,0.37440204620361328,0.098820582032203674,-0.024507004767656326,-1.5436840057373047,-0.014686551876366138,-0.22945179045200348,-9.9900226593017578,-0.063132070004940033,8
-0.41567456722259521,0.3817039430141449,0.095241911709308624,0.37497800588607788,-1.4326658248901367,-0.043382331728935242,-2.6730554103851318,-8.4267063140869141,0.48500069975852966,8
0.41567447781562805,0.38170462846755981,0.095241904258728027,-0.37498214840888977,-1.4326636791229248,-0.043381746858358383,2.673046350479126,-8.4267673492431641,0.48499578237533569,8
0.70138126611709595,0.37440213561058044,0.098820462822914124,0.024506915360689163,-1.5436832904815674,-0.014687267132103443,0.22945190966129303,-9.990015983581543,-0.063126206398010254,8
0.99382400512695312,0.37706410884857178,0.099783912301063538,0.54116964340209961,-1.5239835977554321,-0.0022734103258699179,-0.70361846685409546,-10.001852989196777,-0.0027656087186187506,8
-0.9945608377456665,0.37715175747871399,0.29939839243888855,-0.54448384046554565,-1.5232882499694824,-0.002092861570417881,0.75194472074508667,-10.002206802368164,0.052214980125427246,8
-0.70606344938278198,0.37592446804046631,0.29360923171043396,-0.067085430026054382,-1.5365846157073975,-0.048557490110397339,-0.30859103798866272,-10.042450904846191,0.027984490618109703,8
-0.42522993683815002,0.38949215412139893,0.27943763136863708,0.3115277886390686,-1.4441962242126465,-0.16170242428779602,-1.4336888790130615,-10.963704109191895,0.18363340198993683,8
0.42522969841957092,0.38949248194694519,0.27943757176399231,-0.31153464317321777,-1.4441919326782227,-0.16170278191566467,1.4336397647857666,-10.963539123535156,0.18363161385059357,8
0.70606350898742676,0.37592446804046631,0.29360878467559814,0.067085243761539459,-1.5365841388702393,-0.048558633774518967,0.30858790874481201,-10.042447090148926,0.027995890006422997,8
0.99456101655960083,0.37715178728103638,0.29939839243888855,0.54448485374450684,-1.5232880115509033,-0.002093171700835228,-0.75193578004837036,-10.002206802368164,0.052215944975614548,8
-0.9949457049369812,0.37731176614761353,0.50300616025924683,-0.53695207834243774,-1.5211728811264038,0.033777553588151932,0.91544145345687866,-9.9915285110473633,0.14197137951850891,8
-0.72798579931259155,0.3786713182926178,0.4903380274772644,-0.18946075439453125,-1.5280025005340576,-0.025325646623969078,-0.037837918847799301,-10.092379570007324,0.34053060412406921,8
-0.44195592403411865,0.39309290051460266,0.44195550680160522,0.24847686290740967,-1.4693126678466797,-0.24847908318042755,-1.0423439741134644,-10.910009384155273,1.0423417091369629,8
-0.27943766117095947,0.3894922137260437,0.42522963881492615,0.16170153021812439,-1.444193959236145,-0.31153157353401184,-0.18364502489566803,-10.963657379150391,1.4336137771606445,8
-0.09524187445640564,0.38170456886291504,0.41567462682723999,0.043381735682487488,-1.4326671361923218,-0.37497919797897339,-0.48499724268913269,-8.4268388748168945,2.6730356216430664,8
0.095241785049438477,0.38170480728149414,0.41567453742027283,-0.043382726609706879,-1.4326629638671875,-0.37498101592063904,0.48497810959815979,-8.4267816543579102,2.6730499267578125,8
0.27943748235702515,0.38949251174926758,0.42522966861724854,-0.1617031991481781,-1.444191575050354,-0.31153413653373718,0.18363295495510101,-10.963542938232422,1.4336344003677368,8
0.44195538759231567,0.39309290051460266,0.44195538759231567,-0.24848103523254395,-1.4693132638931274,-0.24848082661628723,1.0423600673675537,-10.909963607788086,1.042350172996521,8
0.72798579931259155,0.3786713182926178,0.4903380274772644,0.18946093320846558,-1.5280022621154785,-0.025325622409582138,0.037837471812963486,-10.092371940612793,0.3405279815196991,8
0.99494612216949463,0.37731170654296875,0.50300616025924683,0.53695434331893921,-1.5211734771728516,0.033777698874473572,-0.91543608903884888,-9.9915285110473633,0.14197267591953278,8
-0.97781765460968018,0.37791794538497925,0.72340130805969238,-0.43501678109169006,-1.5145496129989624,0.16533160209655762,0.80633187294006348,-9.9673280715942383,0.069338232278823853,8
-0.75491422414779663,0.376151442527771,0.7549140453338623,-0.28676831722259521,-1.5284137725830078,0.28676700592041016,0.60455375909805298,-9.9294548034667969,-0.60455375909805298,8
-0.4903380274772644,0.3786713182926178,0.72798490524291992,0.025325803086161613,-1.528002142906189,0.18945708870887756,-0.34052625298500061,-10.092379570007324,0.037850882858037949,8
-0.29360872507095337,0.37592494487762451,0.70606333017349243,0.048558823764324188,-1.5365825891494751,0.067084185779094696,-0.027996895834803581,-10.042458534240723,0.3085918128490448,8
-0.0988202765583992,0.37440299987792969,0.70138126611709595,0.014687346294522285,-1.54367995262146,0.024506630375981331,0.06312011182308197,-9.9900369644165039,0.22945414483547211,8
0.098820239305496216,0.37440299987792969,0.70138126611709595,-0.014687878079712391,-1.5436797142028809,0.024506691843271255,-0.063122570514678955,-9.9900302886962891,0.22945447266101837,8
0.29360860586166382,0.37592494487762451,0.70606344938278198,-0.048559635877609253,-1.5365822315216064,0.067085012793540955,0.027995331212878227,-10.042458534240723,0.3085874617099762,8
0.49033793807029724,0.3786713182926178,0.72798585891723633,-0.025326328352093697,-1.5280020236968994,0.18946123123168945,0.34052658081054688,-10.092375755310059,0.037836130708456039,8
0.75491422414779663,0.37615132331848145,0.75491434335708618,0.28676912188529968,-1.5284146070480347,0.28676939010620117,-0.60455286502838135,-9.9294548034667969,-0.60455197095870972,8
0.97781848907470703,0.37791746854782104,0.72340136766433716,0.43502050638198853,-1.5145511627197266,0.16533231735229492,-0.80634975433349609,-9.9673166275024414,0.069339126348495483,8
-0.93099623918533325,0.37935101985931396,0.93099617958068848,-0.24640646576881409,-1.5043600797653198,0.24640642106533051,-0.28981757164001465,-9.9899759292602539,0.28981667757034302,8
-0.72340130805969238,0.37791794538497925,0.9778175950050354,-0.16533203423023224,-1.5145496129989624,0.43501722812652588,-0.069338679313659668,-9.9673280715942383,-0.80633187294006348,8
-0.50300616025924683,0.37731173634529114,0.99494576454162598,-0.033777568489313126,-1.5211730003356934,0.53695255517959595,-0.14197166264057159,-9.9915285110473633,-0.91543787717819214,8
-0.299398273229599,0.37715181708335876,0.99456077814102173,0.0020934147760272026,-1.5232876539230347,0.54448342323303223,-0.052216112613677979,-10.002206802368164,-0.75194293260574341,8
-0.099783807992935181,0.37706422805786133,0.99382388591766357,0.0022735258098691702,-1.5239828824996948,0.54116719961166382,0.002761962590739131,-10.001852989196777,-0.70362383127212524,8
0.099783807992935181,0.37706422805786133,0.99382305145263672,-0.0022737081162631512,-1.5239828824996948,0.54116535186767578,-0.002763108117505908,-10.001852989196777,-0.70360416173934937,8
0.299398273229599,0.37715181708335876,0.99456089735031128,-0.0020936443470418453,-1.5232876539230347,0.54448419809341431,0.052215497940778732,-10.002206802368164,-0.75193935632705688,8
0.50300616025924683,0.37731170654296875,0.99494606256484985,0.03377741202712059,-1.521173357963562,0.53695487976074219,0.14197160303592682,-9.9915285110473633,-0.91543787717819214,8
0.72340130805969238,0.37791746854782104,0.97781860828399658,0.16533221304416656,-1.5145511627197266,0.43502101302146912,0.069338679313659668,-9.9673166275024414,-0.80634975433349609,8
0.93099641799926758,0.3793509304523468,0.9309963583946228,0.2464078813791275,-1.5043611526489258,0.2464078813791275,0.28982025384902954,-9.9899797439575195,0.28982025384902954,8
-0.93247336149215698,0.58140558004379272,-0.93247330188751221,-0.26459121704101562,-1.4810645580291748,-0.26459065079689026,-0.37732419371604919,-9.9016561508178711,-0.3773215115070343,8
-0.72434616088867188,0.58119064569473267,-0.98020964860916138,-0.17722561955451965,-1.4837548732757568,-0.46182897686958313,-0.1302511990070343,-9.9121675491333008,0.69948160648345947,8
-0.50322204828262329,0.5809403657913208,-0.99753820896148682,-0.037182778120040894,-1.487684965133667,-0.56857633590698242,-0.16783139109611511,-9.9411067962646484,0.75162643194198608,8
-0.29949420690536499,0.58080756664276123,-0.99744927883148193,0.00088665902148932219,-1.4896464347839355,-0.58044242858886719,-0.060476783663034439,-9.9543027877807617,0.55500805377960205,8
-0.099805355072021484,0.58081686496734619,-0.99687093496322632,0.0020570983178913593,-1.4898418188095093,-0.57874411344528198,0.0018738232320174575,-9.9582080841064453,0.50077736377716064,8
0.099805489182472229,0.58081686496734619,-0.99687093496322632,-0.0020566696766763926,-1.4898418188095093,-0.57874405384063721,-0.0018783843843266368,-9.9582080841064453,0.50077915191650391,8
0.29949420690536499,0.58080756664276123,-0.99744927883148193,-0.00088696012971922755,-1.4896464347839355,-0.58044260740280151,0.060475155711174011,-9.9543027877807617,0.55500447750091553,8
0.50322180986404419,0.5809403657913208,-0.99753838777542114,0.037181876599788666,-1.487684965133667,-0.56857699155807495,0.1678311675786972,-9.9411067962646484,0.7516210675239563,8
0.7243461012840271,0.58119064569473267,-0.98020976781845093,0.1772255152463913,-1.4837547540664673,-0.4618304967880249,0.13025254011154175,-9.9121675491333008,0.69947892427444458,8
0.93247342109680176,0.58140558004379272,-0.93247336149215698,0.26459234952926636,-1.4810644388198853,-0.26459208130836487,0.37732329964637756,-9.9016561508178711,-0.37732329964637756,8
-0.98020964860916138,0.58119064569473267,-0.72434604167938232,-0.46182870864868164,-1.4837548732757568,-0.1772245317697525,0.69948160648345947,-9.91217041015625,-0.13024851679801941,8
-0.75500833988189697,0.58074671030044556,-0.7550080418586731,-0.29780051112174988,-1.4894558191299438,-0.29779809713363647,0.49458053708076477,-9.9378767013549805,0.49458053708076477,8
-0.4902317225933075,0.57975316047668457,-0.72384065389633179,0.023868128657341003,-1.5073384046554565,-0.1805867999792099,-0.40722870826721191,-10.11953067779541,-0.29252302646636963,8
-0.29464259743690491,0.57880580425262451,-0.70516526699066162,0.045827660709619522,-1.52739417552948,-0.080797523260116577,0.00060953194042667747,-10.460339546203613,-0.91721463203430176,8
-0.098932646214962006,0.57896900177001953,-0.70163393020629883,0.016532726585865021,-1.5230033397674561,-0.034745458513498306,0.17060549557209015,-10.292075157165527,-0.46363097429275513,8
0.098932839930057526,0.57896900177001953,-0.7016339898109436,-0.016532678157091141,-1.5230038166046143,-0.034745968878269196,-0.17062848806381226,-10.292082786560059,-0.46363556385040283,8
0.29464247822761536,0.57880580425262451,-0.70516538619995117,-0.045828681439161301,-1.5273944139480591,-0.080802001059055328,-0.00061411404749378562,-10.460339546203613,-0.9173358678817749,8
0.49023088812828064,0.57975316047668457,-0.72384065389633179,-0.023871934041380882,-1.5073386430740356,-0.18058714270591736,0.40724408626556396,-10.11953067779541,-0.2925337553024292,8
0.75500822067260742,0.58074671030044556,-0.75500822067260742,0.29779976606369019,-1.4894555807113647,-0.29779908061027527,-0.49457427859306335,-9.9378767013549805,0.49457517266273499,8
0.98020988702774048,0.58119070529937744,-0.72434604167938232,0.46183076500892639,-1.4837546348571777,-0.17722515761852264,-0.69947803020477295,-9.9121675491333008,-0.1302511990070343,8
-0.99753725528717041,0.5809403657913208,-0.50322180986404419,-0.56857156753540039,-1.487684965133667,-0.037181627005338669,0.75161391496658325,-9.9411067962646484,-0.16782949864864349,8
-0.72384154796600342,0.57975316047668457,-0.49023085832595825,-0.18059056997299194,-1.5073385238647461,0.023872226476669312,-0.2925136387348175,-10.11953067779541,-0.40724602341651917,8
-0.44054755568504333,0.57467436790466309,-0.44054651260375977,0.23205588757991791,-1.6366435289382935,0.23206187784671783,-2.3549761772155762,-12.920829772949219,-2.3549351692199707,8
-0.28168651461601257,0.57221406698226929,-0.41740342974662781,0.19288536906242371,-1.6887649297714233,0.36926031112670898,0.90994828939437866,-14.084833145141602,-2.1551780700683594,8
-0.096678413450717926,0.57485389709472656,-0.40748092532157898,0.070783369243144989,-1.6100113391876221,0.48071399331092834,1.3046561479568481,-11.615963935852051,-1.6073360443115234,8
0.096678562462329865,0.57485353946685791,-0.40748119354248047,-0.07078108936548233,-1.6100189685821533,0.48071286082267761,-1.304588794708252,-11.616031646728516,-1.6073271036148071,8
0.28168633580207825,0.57221400737762451,-0.41740360856056213,-0.19288338720798492,-1.6887621879577637,0.36925801634788513,-0.90987497568130493,-14.084714889526367,-2.1551780700683594,8
0.44054698944091797,0.57467430830001831,-0.44054660201072693,-0.23206138610839844,-1.6366438865661621,0.2320590615272522,2.3548693656921387,-12.920825958251953,-2.3550107479095459,8
0.72384071350097656,0.57975316047668457,-0.49023079872131348,0.18058742582798004,-1.5073381662368774,0.023872489109635353,0.29253017902374268,-10.11953067779541,-0.40724596381187439,8
0.99753838777542114,0.5809403657913208,-0.50322180986404419,0.56857681274414062,-1.4876847267150879,-0.037181735038757324,-0.75162464380264282,-9.9411067962646484,-0.16783072054386139,8
-0.9974481463432312,0.58080756664276123,-0.29949429631233215,-0.58043652772903442,-1.4896465539932251,0.00088669609976932406,0.55499911308288574,-9.9543027877807617,-0.060472887009382248,8
-0.70516544580459595,0.57880574464797974,-0.2946428656578064,-0.08079933375120163,-1.5273947715759277,0.045827742666006088,-0.91722500324249268,-10.460339546203613,0.00062484288355335593,8
-0.41740414500236511,0.57221412658691406,-0.28168630599975586,0.36925613880157471,-1.6887665987014771,0.19288459420204163,-2.1551728248596191,-14.084865570068359,0.90988481044769287,8
0.41740423440933228,0.57221406698226929,-0.28168633580207825,-0.3692556619644165,-1.6887668371200562,0.19288234412670135,2.1551520824432373,-14.084854125976562,0.90981733798980713,8
0.70516562461853027,0.57880580425262451,-0.29464277625083923,0.080802261829376221,-1.5273944139480591,0.045827977359294891,0.91733342409133911,-10.460339546203613,0.00062350177904590964,8
0.99744921922683716,0.58080756664276123,-0.29949426651000977,0.58044219017028809,-1.4896461963653564,0.00088670838158577681,-0.55500626564025879,-9.9543027877807617,-0.060474228113889694,8
-0.99687081575393677,0.58081680536270142,-0.099805563688278198,-0.57874202728271484,-1.4898421764373779,0.0020562189165502787,0.50078630447387695,-9.9582080841064453,0.0018816672964021564,8
-0.70163410902023315,0.57896900177001953,-0.098933137953281403,-0.034746751189231873,-1.5230046510696411,0.016531193628907204,-0.46363627910614014,-10.292078971862793,0.17062170803546906,8
-0.40748149156570435,0.57485324144363403,-0.096678674221038818,0.48071014881134033,-1.6100203990936279,0.070780985057353973,-1.6073333024978638,-11.61603832244873,1.3046047687530518,8
0.40748146176338196,0.57485300302505493,-0.096678495407104492,-0.48071062564849854,-1.61002516746521,0.070783212780952454,1.6073368787765503,-11.616031646728516,1.3046612739562988,8
0.70163404941558838,0.57896900177001953,-0.09893297404050827,0.03474566712975502,-1.5230042934417725,0.016531903296709061,0.46362951397895813,-10.292078971862793,0.17063266038894653,8
0.99687111377716064,0.58081686496734619,-0.099805504083633423,0.57874470949172974,-1.4898413419723511,0.0020562296267598867,-0.50077915191650391,-9.9581975936889648,0.0018786917207762599,8
-0.99687093496322632,0.58081680536270142,0.099805504083633423,-0.5787431001663208,-1.4898422956466675,-0.0020567176397889853,0.50078630447387695,-9.9582042694091797,-0.0018784402636811137,8
-0.70163410902023315,0.57896894216537476,0.098932944238185883,-0.034746672958135605,-1.5230046510696411,-0.016532363370060921,-0.46363237500190735,-10.292075157165527,-0.17062975466251373,8
-0.40748149156570435,0.57485312223434448,0.09667862206697464,0.48070991039276123,-1.6100159883499146,-0.070779450237751007,-1.6073404550552368,-11.615884780883789,-1.3045436143875122,8
0.40748095512390137,0.57485330104827881,0.096678473055362701,-0.48071256279945374,-1.6100223064422607,-0.070780888199806213,1.6073503494262695,-11.616056442260742,-1.3045663833618164,8
0.70163404941558838,0.57896900177001953,0.098932653665542603,0.034745696932077408,-1.5230038166046143,-0.016532901674509048,0.46362662315368652,-10.292068481445312,-0.17060628533363342,8
0.99687111377716064,0.58081686496734619,0.099805362522602081,0.57874506711959839,-1.4898413419723511,-0.0020572945941239595,-0.50077915191650391,-9.9581975936889648,-0.0018755135824903846,8
-0.99744898080825806,0.58080756664276123,0.29949435591697693,-0.58044010400772095,-1.4896466732025146,-0.00088657374726608396,0.55501341819763184,-9.9543027877807617,0.060474038124084473,8
-0.70516544580459595,0.57880586385726929,0.29464295506477356,-0.080798342823982239,-1.5273911952972412,-0.04582725465297699,-0.91720873117446899,-10.460213661193848,-0.00062495464226230979,8
-0.4174044132232666,0.57221400737762451,0.28168651461601257,0.36925286054611206,-1.6887589693069458,-0.19288262724876404,-2.1552200317382812,-14.084586143493652,-0.90986514091491699,8
0.41740381717681885,0.57221406698226929,0.28168648481369019,-0.36925849318504333,-1.6887608766555786,-0.19288098812103271,2.1551539897918701,-14.084711074829102,-0.90980523824691772,8
0.70516550540924072,0.57880604267120361,0.29464295506477356,0.080798357725143433,-1.5273863077163696,-0.045827772468328476,0.9172096848487854,-10.460099220275879,-0.00062841916223987937,8
0.99744939804077148,0.58080756664276123,0.29949429631233215,0.58044290542602539,-1.4896460771560669,-0.00088683521607890725,-0.55500447750091553,-9.9542961120605469,0.060473717749118805,8
-0.99753725528717041,0.5809403657913208,0.50322180986404419,-0.56857192516326904,-1.4876848459243774,0.037182021886110306,0.75161033868789673,-9.9411067962646484,0.1678297221660614,8
-0.72384071350097656,0.57975310087203979,0.49023118615150452,-0.18058726191520691,-1.5073392391204834,-0.02387043833732605,-0.29253152012825012,-10.119534492492676,0.4072386622428894,8
-0.44054755568504333,0.57467383146286011,0.44054710865020752,0.23205830156803131,-1.6366481781005859,-0.23205915093421936,-2.3549065589904785,-12.920929908752441,2.3549220561981201,8
-0.28168654441833496,0.57221341133117676,0.41740414500236511,0.19288069009780884,-1.6887723207473755,-0.36925503611564636,0.90980702638626099,-14.08501148223877,2.1551692485809326,8
-0.096678271889686584,0.57485330104827881,0.40748202800750732,0.070783481001853943,-1.6100227832794189,-0.48070603609085083,1.3046579360961914,-11.616156578063965,1.6073189973831177,8
0.096678316593170166,0.57485342025756836,0.40748199820518494,-0.070779889822006226,-1.6100170612335205,-0.48070621490478516,-1.3045333623886108,-11.616003036499023,1.6073154211044312,8
0.28168627619743347,0.57221400737762451,0.41740414500236511,-0.19288413226604462,-1.6887515783309937,-0.36925527453422546,-0.90986829996109009,-14.084465026855469,2.1551620960235596,8
0.44054713845252991,0.57467424869537354,0.44054701924324036,-0.23206134140491486,-1.6366411447525024,-0.23206110298633575,2.354902982711792,-12.920801162719727,2.3548688888549805,8
0.72384071350097656,0.57975322008132935,0.49023127555847168,0.18058747053146362,-1.5073376893997192,-0.023870378732681274,0.29253062605857849,-10.11952018737793,0.40723073482513428,8
0.99753844738006592,0.5809403657913208,0.50322192907333374,0.56857705116271973,-1.4876846075057983,0.037182185798883438,-0.7516210675239563,-9.9411029815673828,0.16782937943935394,8
-0.9802093505859375,0.58119076490402222,0.7243461012840271,-0.46182742714881897,-1.4837543964385986,0.17722433805465698,0.69948160648345947,-9.91217041015625,0.1302511990070343,8
-0.75500822067260742,0.58074671030044556,0.75500750541687012,-0.29779899120330811,-1.4894555807113647,0.29779601097106934,0.49457964301109314,-9.9378767013549805,-0.49456533789634705,8
-0.49023118615150452,0.57975316047668457,0.72384071350097656,0.023870572447776794,-1.5073387622833252,0.1805863231420517,-0.40723809599876404,-10.11953067779541,0.29253062605857849,8
-0.2946421205997467,0.57880586385726929,0.70516544580459595,0.045829601585865021,-1.5273903608322144,0.080801509320735931,0.00060215586563572288,-10.460217475891113,0.91733288764953613,8
-0.098932541906833649,0.57896906137466431,0.70163404941558838,0.016533086076378822,-1.5230028629302979,0.034746028482913971,0.1706031858921051,-10.292075157165527,0.46363148093223572,8
0.09893248975276947,0.57896906137466431,0.70163416862487793,-0.016533633694052696,-1.5230022668838501,0.034746371209621429,-0.17060326039791107,-10.292071342468262,0.46362817287445068,8
0.29464194178581238,0.57880604267120361,0.70516550540924072,-0.045830488204956055,-1.5273886919021606,0.080797947943210602,-0.00060293817659839988,-10.460206985473633,0.91720491647720337,8
0.49023085832595825,0.57975322008132935,0.72384071350097656,-0.023872414603829384,-1.5073374509811401,0.18058678507804871,0.40724730491638184,-10.119523048400879,0.29252436757087708,8
0.75500822067260742,0.58074671030044556,0.7550082802772522,0.29779940843582153,-1.4894553422927856,0.29779902100563049,-0.49457696080207825,-9.9378767013549805,-0.49457964301109314,8
0.9802098274230957,0.58119070529937744,0.7243461012840271,0.46183013916015625,-1.4837546348571777,0.17722500860691071,-0.69947892427444458,-9.9121675491333008,0.13025075197219849,8
-0.93247330188751221,0.5814056396484375,0.93247324228286743,-0.26459041237831116,-1.4810639619827271,0.26459029316902161,-0.37732061743736267,-9.9016561508178711,0.37732061743736267,8
-0.72434604167938232,0.58119076490402222,0.98020952939987183,-0.17722481489181519,-1.4837543964385986,0.46182844042778015,-0.13024851679801941,-9.91217041015625,-0.69948071241378784,8
-0.50322180986404419,0.5809403657913208,0.99753814935684204,-0.037181764841079712,-1.4876847267150879,0.56857550144195557,-0.16782905161380768,-9.9411067962646484,-0.75162822008132935,8
-0.29949402809143066,0.58080756664276123,0.99744898080825806,0.00088765227701514959,-1.489646315574646,0.58044028282165527,-0.06047632172703743,-9.9543027877807617,-0.55500984191894531,8
-0.099805325269699097,0.58081686496734619,0.99686992168426514,0.0020573281217366457,-1.4898414611816406,0.5787389874458313,0.0018741934327408671,-9.9582042694091797,-0.50076663494110107,8
0.0998053178191185,0.58081692457199097,0.99686992168426514,-0.002057571429759264,-1.4898414611816406,0.57873868942260742,-0.0018757999641820788,-9.9582080841064453,-0.50076484680175781,8
0.29949402809143066,0.58080756664276123,0.99744898080825806,-0.00088794861221686006,-1.4896460771560669,0.58044010400772095,0.060475300997495651,-9.9543027877807617,-0.55501341819763184,8
0.50322180986404419,0.5809403657913208,0.99753820896148682,0.03718147799372673,-1.4876846075057983,0.56857609748840332,0.1678297221660614,-9.9411029815673828,-0.75162643194198608,8
0.72434604167938232,0.58119070529937744,0.98020970821380615,0.17722512781620026,-1.4837546348571777,0.46182993054389954,0.1302511990070343,-9.9121675491333008,-0.69947981834411621,8
0.93247336149215698,0.58140558004379272,0.93247330188751221,0.26459154486656189,-1.4810644388198853,0.26459124684333801,0.37732419371604919,-9.9016561508178711,0.37732329964637756,8
-0.93295454978942871,0.78157830238342285,-0.93295449018478394,-0.27278903126716614,-1.4776710271835327,-0.27278825640678406,-0.44711974263191223,-9.8691520690917969,-0.44711706042289734,8
-0.72490370273590088,0.78112667798995972,-0.98126548528671265,-0.18458729982376099,-1.4821786880493164,-0.47551065683364868,-0.17405344545841217,-9.877284049987793,0.62257194519042969,8
-0.50363492965698242,0.78019338846206665,-0.99948209524154663,-0.042001813650131226,-1.4921485185623169,-0.59000623226165771,-0.19147384166717529,-9.9115447998046875,0.67234748601913452,8
-0.29952213168144226,0.77969807386398315,-0.99972224235534668,-0.00046318955719470978,-1.4970827102661133,-0.60437983274459839,-0.077512346208095551,-9.9284753799438477,0.47766920924186707,8
-0.099695704877376556,0.77989745140075684,-0.99884402751922607,0.0023787454701960087,-1.4973639249801636,-0.60186922550201416,-0.005246519111096859,-9.9499616622924805,0.40948387980461121,8
0.099695712327957153,0.77989745140075684,-0.99884402751922607,-0.0023786339443176985,-1.4973640441894531,-0.60186880826950073,0.0052454504184424877,-9.9499645233154297,0.40948566794395447,8
0.29952210187911987,0.77969807386398315,-0.99972224235534668,0.00046297401422634721,-1.4970829486846924,-0.60437971353530884,0.077511310577392578,-9.9284782409667969,0.47766920924186707,8
0.50363487005233765,0.78019338846206665,-0.99948209524154663,0.042001292109489441,-1.4921488761901855,-0.59000635147094727,0.19147349894046783,-9.9115447998046875,0.67234569787979126,8
0.72490370273590088,0.78112667798995972,-0.98126554489135742,0.18458712100982666,-1.482178807258606,-0.47551098465919495,0.17405344545841217,-9.877284049987793,0.62256926298141479,8
0.93295454978942871,0.78157830238342285,-0.93295449018478394,0.27278926968574524,-1.4776710271835327,-0.27278858423233032,0.44712153077125549,-9.8691520690917969,-0.4471188485622406,8
-0.98126554489135742,0.78112667798995972,-0.72490346431732178,-0.47551071643829346,-1.4821786880493164,-0.18458613753318787,0.62257194519042969,-9.877284049987793,-0.17405210435390472,8
-0.75767719745635986,0.77861011028289795,-0.75767618417739868,-0.31881040334701538,-1.4976804256439209,-0.31880620121955872,0.46094831824302673,-9.8468532562255859,0.46093311905860901,8
-0.49259135127067566,0.77065891027450562,-0.7330518364906311,0.00094657717272639275,-1.5545135736465454,-0.25064763426780701,-0.5046842098236084,-9.8548498153686523,-0.44648674130439758,8
-0.29458758234977722,0.76833844184875488,-0.71573913097381592,0.03582632914185524,-1.5844959020614624,-0.18301793932914734,-0.10229262709617615,-9.839350700378418,-1.4459676742553711,8
-0.098130568861961365,0.76965528726577759,-0.71076393127441406,0.020904975011944771,-1.5937125682830811,-0.13290177285671234,0.22883041203022003,-10.06001091003418,-0.85579562187194824,8
0.098130598664283752,0.76965498924255371,-0.71076416969299316,-0.020905116572976112,-1.5937138795852661,-0.13289476931095123,-0.22883222997188568,-10.059988975524902,-0.85552585124969482,8
0.29458746314048767,0.76833838224411011,-0.71573984622955322,-0.035827081650495529,-1.5844966173171997,-0.18302418291568756,0.10228949785232544,-9.839350700378418,-1.4460713863372803,8
0.49259087443351746,0.77065819501876831,-0.73305189609527588,-0.00094862980768084526,-1.5545158386230469,-0.25064799189567566,0.50468993186950684,-9.8548355102539062,-0.44649612903594971,8
0.75767713785171509,0.77861011028289795,-0.75767618417739868,0.31881004571914673,-1.4976807832717896,-0.31880640983581543,-0.46094653010368347,-9.8468532562255859,0.46093133091926575,8
0.98126566410064697,0.78112667798995972,-0.72490346431732178,0.47551190853118896,-1.4821786880493164,-0.18458625674247742,-0.62256926298141479,-9.877284049987793,-0.17405344545841217,8
-0.999481201171875,0.78019338846206665,-0.50363487005233765,-0.59000194072723389,-1.4921485185623169,-0.042000982910394669,0.67233318090438843,-9.9115447998046875,-0.19147439301013947,8
-0.73305201530456543,0.77065891027450562,-0.49259039759635925,-0.25064975023269653,-1.5545138120651245,0.00095016974955797195,-0.44649389386177063,-9.8548498153686523,-0.50470185279846191,8
-0.45253485441207886,0.74131864309310913,-0.45253419876098633,0.089551880955696106,-1.7369760274887085,0.089559689164161682,-3.9198684692382812,-9.2618207931518555,-3.919687032699585,8
-0.27990707755088806,0.73216944932937622,-0.43607908487319946,0.22074723243713379,-1.8276838064193726,0.16028469800949097,3.0718748569488525,-8.6574010848999023,-3.4460680484771729,8
-0.09219321608543396,0.73698675632476807,-0.42482960224151611,0.10375156998634338,-1.8882535696029663,0.26229536533355713,2.0629713535308838,-9.420989990234375,-1.9624631404876709,8
0.092192977666854858,0.73698610067367554,-0.42482927441596985,-0.10374946892261505,-1.8882551193237305,0.26229724287986755,-2.0628354549407959,-9.4209833145141602,-1.962489128112793,8
0.27990689873695374,0.73216819763183594,-0.4360792338848114,-0.22074748575687408,-1.8276876211166382,0.1602836400270462,-3.0717630386352539,-8.6573476791381836,-3.4460256099700928,8
0.45253479480743408,0.74131840467453003,-0.45253470540046692,-0.089557841420173645,-1.7369773387908936,0.089552082121372223,3.9196500778198242,-9.2616596221923828,-3.9198596477508545,8
0.73305201530456543,0.77065891027450562,-0.49259042739868164,0.25064912438392639,-1.5545141696929932,0.00095015810802578926,0.44649523496627808,-9.8548498153686523,-0.50470328330993652,8
0.99948221445083618,0.78019338846206665,-0.50363487005233765,0.59000694751739502,-1.4921483993530273,-0.042000919580459595,-0.67234748601913452,-9.9115447998046875,-0.19147428870201111,8
-0.9997212290763855,0.77969807386398315,-0.29952216148376465,-0.60437476634979248,-1.4970828294754028,-0.00046310288598760962,0.47766026854515076,-9.9284820556640625,-0.077510423958301544,8
-0.7157401442527771,0.76833802461624146,-0.29458752274513245,-0.18302309513092041,-1.5844969749450684,0.035826783627271652,-1.4459447860717773,-9.8393363952636719,-0.10228916257619858,8
-0.43607974052429199,0.73216873407363892,-0.27990731596946716,0.16027992963790894,-1.8276848793029785,0.22074742615222931,-3.4461324214935303,-8.657383918762207,3.0718321800231934,8
0.43607988953590393,0.73216855525970459,-0.27990695834159851,-0.16028179228305817,-1.8276875019073486,0.22074924409389496,3.4459404945373535,-8.6571578979492188,3.0719254016876221,8
0.71574002504348755,0.76833844184875488,-0.29458752274513245,0.18302413821220398,-1.5844957828521729,0.035826694220304489,1.4460663795471191,-9.839350700378418,-0.10228938609361649,8
0.99972236156463623,0.77969819307327271,-0.29952219128608704,0.60438084602355957,-1.4970817565917969,-0.00046326208394020796,-0.47767099738121033,-9.9284753799438477,-0.077510908246040344,8
-0.9988437294960022,0.77989745140075684,-0.099695801734924316,-0.60186702013015747,-1.497363805770874,0.0023782579228281975,0.40949103236198425,-9.9499616622924805,-0.0052422024309635162,8
-0.71076446771621704,0.76965498924255371,-0.098130807280540466,-0.13290469348430634,-1.5937138795852661,0.020904544740915298,-0.8557855486869812,-10.059988975524902,0.22883765399456024,8
-0.4248301088809967,0.73698753118515015,-0.09219302237033844,0.26229256391525269,-1.8882464170455933,0.10374927520751953,-1.9624649286270142,-9.4209079742431641,2.0628457069396973,8
0.42482990026473999,0.73698651790618896,-0.092192843556404114,-0.26228955388069153,-1.8882617950439453,0.10375192761421204,1.9622843265533447,-9.4208974838256836,2.0629754066467285,8
0.71076369285583496,0.76965498924255371,-0.098130948841571808,0.13289386034011841,-1.5937122106552124,0.020904049277305603,0.85570377111434937,-10.06001091003418,0.22884164750576019,8
0.99884492158889771,0.77989763021469116,-0.09969591349363327,0.60187220573425293,-1.4973613023757935,0.0023776818998157978,-0.40950354933738708,-9.9499540328979492,-0.0052398764528334141,8
-0.9988439679145813,0.77989745140075684,0.099695846438407898,-0.60186827182769775,-1.4973639249801636,-0.002378382720053196,0.40949282050132751,-9.9499616622924805,0.0052428240887820721,8
-0.71076458692550659,0.76965498924255371,0.098130904138088226,-0.13289734721183777,-1.5937142372131348,-0.020903615280985832,-0.85550552606582642,-10.059988975524902,-0.22882163524627686,8
-0.4248301088809967,0.73698675632476807,0.092193111777305603,0.26229259371757507,-1.888250470161438,-0.1037454754114151,-1.9624667167663574,-9.420832633972168,-2.062699556350708,8
0.42482954263687134,0.73698592185974121,0.092192895710468292,-0.26229274272918701,-1.8882709741592407,-0.10374816507101059,1.9623264074325562,-9.4209613800048828,-2.0628340244293213,8
0.71076399087905884,0.76965528726577759,0.098130591213703156,0.13289609551429749,-1.5937108993530273,-0.020905058830976486,0.8556787371635437,-10.060025215148926,-0.22881636023521423,8
0.99884504079818726,0.77989763021469116,0.099695689976215363,0.60187304019927979,-1.4973611831665039,-0.0023791473358869553,-0.40950354933738708,-9.9499540328979492,0.00524559011682868,8
-0.99972212314605713,0.77969807386398315,0.29952231049537659,-0.60437858104705811,-1.4970830678939819,0.00046349095646291971,0.47767636179924011,-9.9284782409667969,0.077511072158813477,8
-0.71573978662490845,0.76833784580230713,0.29458773136138916,-0.1830211877822876,-1.5844985246658325,-0.035825654864311218,-1.4459385871887207,-9.8393259048461914,0.10228893905878067,8
-0.43607994914054871,0.73216795921325684,0.2799072265625,0.16028188169002533,-1.8276880979537964,-0.22074083983898163,-3.4460165500640869,-8.6571903228759766,-3.0716838836669922,8
0.43607938289642334,0.73216849565505981,0.27990716695785522,-0.16028048098087311,-1.8276920318603516,-0.2207396924495697,3.4459683895111084,-8.6572551727294922,-3.0716943740844727,8
0.71574008464813232,0.76833814382553101,0.29458782076835632,0.18302258849143982,-1.5844961404800415,-0.035828109830617905,1.4459143877029419,-9.8393220901489258,0.10223138332366943,8
0.99972337484359741,0.77969819307327271,0.2995222806930542,0.60438412427902222,-1.4970815181732178,0.00046324450522661209,-0.47768887877464294,-9.928471565246582,0.077508673071861267,8
-0.99948114156723022,0.78019332885742188,0.50363492965698242,-0.59000200033187866,-1.4921492338180542,0.042001646012067795,0.6723296046257019,-9.9115447998046875,0.19147384166717529,8
-0.73305201530456543,0.77065813541412354,0.49259135127067566,-0.25064933300018311,-1.5545166730880737,-0.00094674481078982353,-0.4464988112449646,-9.8548288345336914,0.50468695163726807,8
-0.45253542065620422,0.74131786823272705,0.45253485441207886,0.089550599455833435,-1.7369794845581055,-0.089560560882091522,-3.919825553894043,-9.2616567611694336,3.9195082187652588,8
-0.27990692853927612,0.73216831684112549,0.43607965111732483,0.22074577212333679,-1.8276913166046143,-0.16028402745723724,3.0718436241149902,-8.6573123931884766,3.4458682537078857,8
-0.09219292551279068,0.73698651790618896,0.42483040690422058,0.10375187546014786,-1.888251781463623,-0.26228475570678711,2.0630192756652832,-9.4206790924072266,1.9624255895614624,8
0.092192873358726501,0.73698604106903076,0.42483016848564148,-0.1037459596991539,-1.8882573843002319,-0.26228779554367065,-2.0627701282501221,-9.42071533203125,1.9623585939407349,8
0.27990695834159851,0.73216980695724487,0.43607977032661438,-0.22073809802532196,-1.8276849985122681,-0.16028234362602234,-3.071643590927124,-8.6573295593261719,3.4458463191986084,8
0.45253509283065796,0.74131917953491211,0.45253497362136841,-0.089553974568843842,-1.7369722127914429,-0.08955758810043335,3.9197461605072021,-9.2616996765136719,3.9195530414581299,8
0.73305201530456543,0.77065896987915039,0.4925912618637085,0.25064930319786072,-1.5545134544372559,-0.00094850687310099602,0.44649747014045715,-9.8548431396484375,0.50462490320205688,8
0.99948233366012573,0.78019338846206665,0.50363492965698242,0.59000766277313232,-1.4921482801437378,0.042001686990261078,-0.67234569787979126,-9.9115409851074219,0.19147171080112457,8
-0.98126488924026489,0.78112667798995972,0.72490358352661133,-0.47550779581069946,-1.482178807258606,0.18458642065525055,0.62255316972732544,-9.877284049987793,0.17405344545841217,8
-0.75767695903778076,0.77861011028289795,0.75767630338668823,-0.31880933046340942,-1.4976812601089478,0.31880635023117065,0.46094921231269836,-9.8468532562255859,-0.4609358012676239,8
-0.49259132146835327,0.77065813541412354,0.73305195569992065,0.00094727566465735435,-1.5545161962509155,0.25064873695373535,-0.50468814373016357,-9.8548250198364258,0.44649389386177063,8
-0.29458722472190857,0.76833832263946533,0.71573948860168457,0.035827714949846268,-1.5844966173171997,0.18302200734615326,-0.1022985503077507,-9.8393430709838867,1.4460663795471191,8
-0.098130606114864349,0.76965510845184326,0.71076399087905884,0.020905153825879097,-1.5937106609344482,0.1328921765089035,0.22884279489517212,-10.060013771057129,0.85555309057235718,8
0.098130278289318085,0.76965564489364624,0.71076482534408569,-0.020906694233417511,-1.5937086343765259,0.13289599120616913,-0.22881250083446503,-10.060028076171875,0.85551536083221436,8
0.29458713531494141,0.76833844184875488,0.71573972702026367,-0.035828601568937302,-1.5844937562942505,0.18301992118358612,0.10230011492967606,-9.8393363952636719,1.4459158182144165,8
0.49259087443351746,0.77065908908843994,0.73305124044418335,-0.00094897625967860222,-1.5545133352279663,0.25064575672149658,0.50469720363616943,-9.8548469543457031,0.44650685787200928,8
0.75767707824707031,0.77861011028289795,0.75767630338668823,0.31880983710289001,-1.4976804256439209,0.31880655884742737,-0.4609474241733551,-9.8468532562255859,-0.46093401312828064,8
0.98126566410064697,0.78112667798995972,0.72490358352661133,0.47551172971725464,-1.4821785688400269,0.18458651006221771,-0.62256926298141479,-9.877284049987793,0.17405299842357635,8
-0.93295454978942871,0.78157830238342285,0.93295449018478394,-0.27278801798820496,-1.4776710271835327,0.27278819680213928,-0.4471188485622406,-9.8691520690917969,0.44711706042289734,8
-0.72490358352661133,0.78112667798995972,0.98126548528671265,-0.18458673357963562,-1.482178807258606,0.47551062703132629,-0.17405076324939728,-9.877284049987793,-0.62257105112075806,8
-0.50363487005233765,0.78019332885742188,0.99948209524154663,-0.042001072317361832,-1.4921489953994751,0.59000653028488159,-0.19147317111492157,-9.9115447998046875,-0.67234748601913452,8
-0.29952171444892883,0.77969807386398315,0.99972224235534668,-0.00046174833551049232,-1.4970828294754028,0.60437959432601929,-0.077522680163383484,-9.9284753799438477,-0.47767099738121033,8
-0.099695689976215363,0.77989739179611206,0.9988437294960022,0.0023789184633642435,-1.4973639249801636,0.60186702013015747,-0.0052467286586761475,-9.9499616622924805,-0.40949103236198425,8
0.099695615470409393,0.77989751100540161,0.9988437294960022,-0.0023795000743120909,-1.497363805770874,0.60186702013015747,0.0052455971017479897,-9.9499616622924805,-0.40949282050132751,8
0.29952171444892883,0.77969807386398315,0.9997221827507019,0.00046134734293445945,-1.4970824718475342,0.60437941551208496,0.077521473169326782,-9.9284753799438477,-0.47767457365989685,8
0.50363487005233765,0.78019338846206665,0.99948209524154663,0.042000852525234222,-1.4921483993530273,0.59000623226165771,0.19147339463233948,-9.9115447998046875,-0.67234569787979126,8
0.7249036431312561,0.78112667798995972,0.98126548528671265,0.18458706140518188,-1.4821785688400269,0.47551083564758301,0.17405255138874054,-9.877284049987793,-0.62256926298141479,8
0.93295454978942871,0.78157830238342285,0.93295449018478394,0.27278915047645569,-1.4776709079742432,0.27278846502304077,0.44712063670158386,-9.8691520690917969,0.4471188485622406,8
-0.93367666006088257,0.98149138689041138,-0.93367642164230347,-0.28338512778282166,-1.4786715507507324,-0.28338411450386047,-0.51913976669311523,-9.8708934783935547,-0.51913619041442871,8
-0.72599124908447266,0.9807857871055603,-0.98323541879653931,-0.19614282250404358,-1.4856647253036499,-0.49618282914161682,-0.20971609652042389,-9.8830709457397461,0.56031256914138794,8
-0.50475543737411499,0.97928690910339355,-1.0038907527923584,-0.052573021501302719,-1.5014408826828003,-0.62867891788482666,-0.21760548651218414,-9.9313793182373047,0.63836747407913208,8
-0.29985204339027405,0.97826600074768066,-1.0053435564041138,-0.0051895277574658394,-1.511994481086731,-0.65076899528503418,-0.10727072507143021,-9.9605073928833008,0.47634956240653992,8
-0.099549546837806702,0.97794061899185181,-1.0041180849075317,0.0018930437508970499,-1.5163750648498535,-0.64824467897415161,-0.024072455242276192,-9.9867467880249023,0.38688179850578308,8
0.099549561738967896,0.97794061899185181,-1.0041173696517944,-0.001893038279376924,-1.5163754224777222,-0.64824271202087402,0.024072464555501938,-9.9867467880249023,0.3868621289730072,8
0.29985204339027405,0.97826600074768066,-1.0053434371948242,0.0051893861964344978,-1.511994481086731,-0.65076857805252075,0.10726975649595261,-9.9605112075805664,0.47635135054588318,8
0.50475543737411499,0.97928690910339355,-1.0038907527923584,0.052572682499885559,-1.5014412403106689,-0.62867885828018188,0.21760447323322296,-9.9313821792602539,0.63836747407913208,8
0.72599118947982788,0.9807857871055603,-0.98323541879653931,0.19614244997501373,-1.4856648445129395,-0.49618291854858398,0.20971564948558807,-9.8830738067626953,0.56030988693237305,8
0.93367666006088257,0.98149138689041138,-0.93367642164230347,0.28338488936424255,-1.478671669960022,-0.28338417410850525,0.5191388726234436,-9.8708934783935547,-0.51913619041442871,8
-0.98323547840118408,0.9807857871055603,-0.72599118947982788,-0.49618324637413025,-1.4856648445129395,-0.19614171981811523,0.56031256914138794,-9.8830738067626953,-0.20971609652042389,8
-0.76574510335922241,0.97699564695358276,-0.76574414968490601,-0.3628990650177002,-1.5055661201477051,-0.36289471387863159,0.56256562471389771,-9.792078971862793,0.56255221366882324,8
-0.49985092878341675,0.96462357044219971,-0.76284629106521606,-0.043048769235610962,-1.5793631076812744,-0.4084068238735199,-0.32540601491928101,-9.6895971298217773,0.040337737649679184,8
-0.29457929730415344,0.95875358581542969,-0.7478567361831665,0.015852542594075203,-1.6226544380187988,-0.35728460550308228,-0.21393734216690063,-9.6490745544433594,-0.24716375768184662,8
-0.097292013466358185,0.95721089839935303,-0.74057567119598389,0.011934821493923664,-1.642877459526062,-0.32573238015174866,-0.066233262419700623,-9.8033304214477539,-0.27850449085235596,8
0.097291849553585052,0.95721065998077393,-0.74057513475418091,-0.011935347691178322,-1.6428781747817993,-0.32572957873344421,0.066241957247257233,-9.8033342361450195,-0.27854114770889282,8
0.29457926750183105,0.95875412225723267,-0.74785757064819336,-0.015852794051170349,-1.6226531267166138,-0.35728800296783447,0.21393638849258423,-9.6491031646728516,-0.24714230000972748,8
0.49985101819038391,0.96462333202362061,-0.76284593343734741,0.043048623949289322,-1.5793638229370117,-0.40840539336204529,0.32539921998977661,-9.6895971298217773,0.040320750325918198,8
0.76574510335922241,0.97699558734893799,-0.76574414968490601,0.36289829015731812,-1.5055663585662842,-0.36289456486701965,-0.56256383657455444,-9.792078971862793,0.56254953145980835,8
0.98323547840118408,0.9807857871055603,-0.72599118947982788,0.49618330597877502,-1.4856648445129395,-0.19614164531230927,-0.56031256914138794,-9.8830738067626953,-0.20971609652042389,8
-1.0038906335830688,0.97928690910339355,-0.50475537776947021,-0.62867724895477295,-1.5014407634735107,-0.052572570741176605,0.63836926221847534,-9.9313793182373047,-0.21760459244251251,8
-0.76284688711166382,0.96462357044219971,-0.49985092878341675,-0.4084092378616333,-1.5793625116348267,-0.043048873543739319,0.040337737649679184,-9.6895971298217773,-0.32539305090904236,8
-0.47913762927055359,0.9194413423538208,-0.47913756966590881,-0.0170147605240345,-1.7670027017593384,-0.017013996839523315,-1.3995580673217773,-7.6284236907958984,-1.3995318412780762,8
-0.28311812877655029,0.90301221609115601,-0.48371902108192444,0.05475829541683197,-1.7929147481918335,-0.087584160268306732,-0.036206912249326706,-5.7033271789550781,-0.82810181379318237,8
-0.089998066425323486,0.89684039354324341,-0.47278264164924622,0.048611082136631012,-1.8972952365875244,-0.080071844160556793,0.33124867081642151,-7.7618656158447266,-1.0404795408248901,8
0.089997649192810059,0.89684003591537476,-0.47278255224227905,-0.048610977828502655,-1.8973027467727661,-0.080072492361068726,-0.3311774730682373,-7.7619156837463379,-1.0404833555221558,8
0.28311759233474731,0.9030117392539978,-0.48371899127960205,-0.054760176688432693,-1.7929220199584961,-0.087581731379032135,0.036339793354272842,-5.7034239768981934,-0.82797282934188843,8
0.47913801670074463,0.9194411039352417,-0.47913777828216553,0.017016731202602386,-1.7670079469680786,-0.017015630379319191,1.3995207548141479,-7.6285238265991211,-1.3995224237442017,8
0.76284652948379517,0.96462357044219971,-0.49985066056251526,0.40840801596641541,-1.5793628692626953,-0.043047461658716202,-0.040336843580007553,-9.6895971298217773,-0.32540300488471985,8
1.0038907527923584,0.97928690910339355,-0.50475531816482544,0.62867879867553711,-1.5014407634735107,-0.052572179585695267,-0.63836747407913208,-9.9313793182373047,-0.21760424971580505,8
-1.0053434371948242,0.97826600074768066,-0.29985207319259644,-0.65076661109924316,-1.5119936466217041,-0.0051895114593207836,0.4763549268245697,-9.9605073928833008,-0.10726931691169739,8
-0.74785768985748291,0.95875418186187744,-0.29457959532737732,-0.35728967189788818,-1.6226521730422974,0.015852173790335655,-0.24713961780071259,-9.6491031646728516,-0.21392565965652466,8
-0.48371976613998413,0.90301257371902466,-0.2831176221370697,-0.087586537003517151,-1.7929199934005737,0.054759375751018524,-0.82812875509262085,-5.7035918235778809,-0.036311853677034378,8
-0.27534818649291992,0.90666508674621582,-0.27534833550453186,0.082361266016960144,-1.7614539861679077,0.082363806664943695,-0.75521904230117798,-7.9284486770629883,-0.75523513555526733,8
-0.086387678980827332,0.90414309501647949,-0.27827650308609009,-0.0019362155580893159,-1.8132758140563965,0.157297283411026,-1.1026742458343506,-9.483586311340332,-0.8631737232208252,8
0.086387768387794495,0.90414249897003174,-0.27827635407447815,0.0019349645590409636,-1.8132758140563965,0.15729527175426483,1.1028332710266113,-9.4835929870605469,-0.86302304267883301,8
0.27534839510917664,0.90666395425796509,-0.27534833550453186,-0.082359075546264648,-1.7614353895187378,0.082355447113513947,0.75509947538375854,-7.9287204742431641,-0.75499016046524048,8
0.48371976613998413,0.90301287174224854,-0.28311797976493835,0.087589934468269348,-1.7929133176803589,0.054756838828325272,0.82799631357192993,-5.7032985687255859,-0.036216188222169876,8
0.74785715341567993,0.95875364542007446,-0.29457959532737732,0.3572862446308136,-1.6226528882980347,0.015852132812142372,0.24714766442775726,-9.6490678787231445,-0.21392633020877838,8
1.0053441524505615,0.97826600074768066,-0.29985207319259644,0.65077030658721924,-1.5119917392730713,-0.0051895319484174252,-0.47637280821800232,-9.9605045318603516,-0.10726966708898544,8
-1.0041172504425049,0.97794085741043091,-0.099549554288387299,-0.64824104309082031,-1.5163735151290894,0.0018928670324385166,0.38686749339103699,-9.9867467880249023,-0.024072056636214256,8
-0.74057507514953613,0.95721089839935303,-0.097291827201843262,-0.32573074102401733,-1.642877459526062,0.011935551650822163,-0.27854382991790771,-9.8033342361450195,-0.066243410110473633,8
-0.47278296947479248,0.89684045314788818,-0.089997150003910065,-0.080075584352016449,-1.8972998857498169,0.048612482845783234,-1.0406341552734375,-7.7619547843933105,0.33114326000213623,8
-0.27827692031860352,0.90414309501647949,-0.086387418210506439,0.15729360282421112,-1.8132758140563965,-0.0019376935670152307,-0.86316657066345215,-9.483586311340332,-1.1028188467025757,8
-0.085877388715744019,0.90414243936538696,-0.085877105593681335,0.14539246261119843,-1.8132709264755249,0.14539362490177155,-0.52399992942810059,-9.4835891723632812,-0.52420955896377563,8
0.085877522826194763,0.90414178371429443,-0.085877150297164917,-0.14539733529090881,-1.8132752180099487,0.14539326727390289,0.52455782890319824,-9.4839153289794922,-0.52411973476409912,8
0.27827650308609009,0.90414106845855713,-0.086387470364570618,-0.15729153156280518,-1.813274621963501,-0.0019388009095564485,0.8633301854133606,-9.4842367172241211,-1.1023933887481689,8
0.47278264164924622,0.89684051275253296,-0.089997231960296631,0.08007550984621048,-1.8972958326339722,0.048611860722303391,1.040164589881897,-7.7618188858032227,0.33124652504920959,8
0.74057430028915405,0.9572109580039978,-0.097291894257068634,0.32572320103645325,-1.642875075340271,0.011934841051697731,0.27858763933181763,-9.8033161163330078,-0.066244751214981079,8
1.004117488861084,0.97794240713119507,-0.099549591541290283,0.6482434868812561,-1.51636803150177,0.0018924607429653406,-0.38686034083366394,-9.9867897033691406,-0.024072706699371338,8
-1.0041172504425049,0.97794085741043091,0.099549576640129089,-0.64824175834655762,-1.5163736343383789,-0.0018931785598397255,0.38686928153038025,-9.9867467880249023,0.02407190203666687,8
-0.74057519435882568,0.95721089839935303,0.097291871905326843,-0.32572978734970093,-1.6428773403167725,-0.011934897862374783,-0.27855187654495239,-9.8033304214477539,0.066261313855648041,8
-0.47278282046318054,0.89684051275253296,0.089997433125972748,-0.080072827637195587,-1.8972979784011841,-0.048609502613544464,-1.0405921936035156,-7.7618227005004883,-0.33107388019561768,8
-0.27827680110931396,0.90414249897003174,0.086387738585472107,0.15729309618473053,-1.8132758140563965,0.0019357557175680995,-0.86308610439300537,-9.4835929870605469,1.1029046773910522,8
-0.085877299308776855,0.90414178371429443,0.085877522826194763,0.14539182186126709,-1.8132752180099487,-0.1453983336687088,-0.52404731512069702,-9.4839153289794922,0.52437901496887207,8
0.085877567529678345,0.90414118766784668,0.085877507925033569,-0.14539766311645508,-1.8132795095443726,-0.14539822936058044,0.52439242601394653,-9.4842405319213867,0.52420198917388916,8
0.27827665209770203,0.90414047241210938,0.086387746036052704,-0.1572931706905365,-1.813274621963501,0.0019352965755388141,0.86320948600769043,-9.4842443466186523,1.1023277044296265,8
0.47278234362602234,0.89684045314788818,0.089997418224811554,0.080074727535247803,-1.8972967863082886,-0.048611659556627274,1.0402500629425049,-7.7618155479431152,-0.33125156164169312,8
0.74057424068450928,0.95721101760864258,0.097291603684425354,0.32572448253631592,-1.6428745985031128,-0.01193647738546133,0.27857601642608643,-9.8033161163330078,0.066243432462215424,8
1.004117488861084,0.97794240713119507,0.099549442529678345,0.64824396371841431,-1.5163682699203491,-0.0018938614521175623,-0.38685855269432068,-9.986785888671875,0.024074332788586617,8
-1.005344033241272,0.97826600074768066,0.2998521625995636,-0.65076917409896851,-1.5119936466217041,0.0051897559314966202,0.47637638449668884,-9.9605073928833008,0.10726910084486008,8
-0.74785774946212769,0.95875412225723267,0.29457995295524597,-0.3572898805141449,-1.6226528882980347,-0.015850672498345375,-0.24713782966136932,-9.6490993499755859,0.21391962468624115,8
-0.48371946811676025,0.90301156044006348,0.28311833739280701,-0.087585218250751495,-1.7929222583770752,-0.054754592478275299,-0.82802784442901611,-5.7034025192260742,0.036363597959280014,8
-0.27534845471382141,0.90666395425796509,0.27534869313240051,0.082353413105010986,-1.7614368200302124,-0.082357428967952728,-0.75525861978530884,-7.9287633895874023,0.7552374005317688,8
-0.086387701332569122,0.9041411280632019,0.27827692031860352,-0.0019394328119233251,-1.813274621963501,-0.15729323029518127,-1.1024858951568604,-9.4842367172241211,0.86316072940826416,8
0.086387880146503448,0.90414047241210938,0.27827677130699158,0.0019361277809366584,-1.813274621963501,-0.15729178488254547,1.1025166511535645,-9.4842443466186523,0.86309683322906494,8
0.27534797787666321,0.90666258335113525,0.27534809708595276,-0.082358404994010925,-1.7614208459854126,-0.082355640828609467,0.75520563125610352,-7.9291138648986816,0.7550775408744812,8
0.48371908068656921,0.90301233530044556,0.28311803936958313,0.087585069239139557,-1.7929264307022095,-0.054758157581090927,0.82797151803970337,-5.703824520111084,0.036239657551050186,8
0.74785751104354858,0.95875418186187744,0.29457968473434448,0.35728853940963745,-1.6226503849029541,-0.015851942822337151,0.24713335931301117,-9.6490926742553711,0.21391946077346802,8
1.0053443908691406,0.97826600074768066,0.29985213279724121,0.65077149868011475,-1.5119918584823608,0.0051894327625632286,-0.47636744379997253,-9.9605045318603516,0.10726810991764069,8
-1.0038899183273315,0.97928690910339355,0.50475543737411499,-0.62867552042007446,-1.501441478729248,0.052573163062334061,0.63835138082504272,-9.9313821792602539,0.21760469675064087,8
-0.7628471851348877,0.96462333202362061,0.49985146522521973,-0.40841054916381836,-1.5793639421463013,0.043050818145275116,0.040350254625082016,-9.6895942687988281,0.32539206743240356,8
-0.47913804650306702,0.91944026947021484,0.47913789749145508,-0.017018234357237816,-1.767009973526001,0.017016611993312836,-1.3995902538299561,-7.6283879280090332,1.3995091915130615,8
-0.28311794996261597,0.9030117392539978,0.48371925950050354,0.054758410900831223,-1.7929248809814453,0.087584778666496277,-0.036331411451101303,-5.7034597396850586,0.82802557945251465,8
-0.089998058974742889,0.89684045314788818,0.47278276085853577,0.048610381782054901,-1.8972930908203125,0.080075874924659729,0.33127850294113159,-7.7616724967956543,1.040336012840271,8
0.089997619390487671,0.89684051275253296,0.47278308868408203,-0.048611406236886978,-1.8972920179367065,0.080080069601535797,-0.33118629455566406,-7.7616686820983887,1.0403456687927246,8
0.28311836719512939,0.90301370620727539,0.48371905088424683,-0.05475752055644989,-1.7929137945175171,0.087583430111408234,0.036215070635080338,-5.7035632133483887,0.8278883695602417,8
0.47913801670074463,0.91944074630737305,0.47913819551467896,0.01701836846768856,-1.7670001983642578,0.01701841875910759,1.3995752334594727,-7.6282377243041992,1.3994847536087036,8
0.76284617185592651,0.96462357044219971,0.49985158443450928,0.40840655565261841,-1.5793626308441162,0.043051339685916901,-0.040320750325918198,-9.6895904541015625,0.32537943124771118,8
1.0038907527923584,0.97928690910339355,0.50475543737411499,0.62867921590805054,-1.5014407634735107,0.052573136985301971,-0.63836568593978882,-9.9313793182373047,0.21760369837284088,8
-0.98323541879653931,0.9807857871055603,0.72599124908447266,-0.49618175625801086,-1.4856650829315186,0.19614195823669434,0.56031256914138794,-9.8830738067626953,0.20971609652042389,8
-0.76574510335922241,0.97699558734893799,0.76574426889419556,-0.36289823055267334,-1.5055667161941528,0.3628954291343689,0.56256562471389771,-9.792078971862793,-0.56255489587783813,8
-0.49985089898109436,0.96462333202362061,0.76284724473953247,-0.043048668652772903,-1.5793639421463013,0.4084104597568512,-0.32540681958198547,-9.6895942687988281,-0.040352042764425278,8
-0.29457947611808777,0.95875430107116699,0.74785721302032471,0.015852175652980804,-1.6226496696472168,0.35728731751441956,-0.21392706036567688,-9.6489925384521484,0.24715571105480194,8
-0.097292162477970123,0.95721065998077393,0.7405744194984436,0.011934414505958557,-1.6428779363632202,0.32572752237319946,-0.066228792071342468,-9.8033161163330078,0.27853846549987793,8
0.097291707992553711,0.95721065998077393,0.74057435989379883,-0.01193616259843111,-1.6428767442703247,0.32572558522224426,0.06623493880033493,-9.8033056259155273,0.27857333421707153,8
0.29457923769950867,0.95875436067581177,0.74785763025283813,-0.015853404998779297,-1.6226469278335571,0.35728782415390015,0.21393431723117828,-9.6489782333374023,0.24713782966136932,8
0.49985116720199585,0.96462357044219971,0.76284605264663696,0.043049082159996033,-1.5793626308441162,0.40840551257133484,0.32539787888526917,-9.6895828247070312,-0.04032343253493309,8
0.76574504375457764,0.97699558734893799,0.76574426889419556,0.36289817094802856,-1.5055662393569946,0.36289501190185547,-0.56256473064422607,-9.792078971862793,-0.56255221366882324,8
0.98323547840118408,0.9807857871055603,0.72599124908447266,0.49618333578109741,-1.4856648445129395,0.19614201784133911,-0.56030988693237305,-9.8830738067626953,0.20971609652042389,8
-0.93367648124694824,0.98149138689041138,0.93367642164230347,-0.28338432312011719,-1.478671669960022,0.28338423371315002,-0.51913708448410034,-9.8708934783935547,0.51913708448410034,8
-0.72599118947982788,0.9807857871055603,0.98323541879653931,-0.19614227116107941,-1.485664963722229,0.4961831271648407,-0.20971386134624481,-9.8830738067626953,-0.56031078100204468,8
-0.50475543737411499,0.97928690910339355,1.0038908720016479,-0.052572630345821381,-1.5014413595199585,0.62867969274520874,-0.21760424971580505,-9.9313793182373047,-0.63836926221847534,8
-0.29985201358795166,0.97826600074768066,1.0053441524505615,-0.0051891733892261982,-1.5119943618774414,0.65077018737792969,-0.10727060586214066,-9.9605073928833008,-0.47637280821800232,8
-0.099549576640129089,0.97794061899185181,1.0041172504425049,0.0018929311772808433,-1.5163756608963013,0.64824163913726807,-0.024072227999567986,-9.9867467880249023,-0.3868621289730072,8
0.099549420177936554,0.97794061899185181,1.0041172504425049,-0.0018938530702143908,-1.5163755416870117,0.64824181795120239,0.024074863642454147,-9.9867467880249023,-0.38686391711235046,8
0.29985195398330688,0.97826600074768066,1.0053441524505615,0.0051887934096157551,-1.5119940042495728,0.65077066421508789,0.10726935416460037,-9.9605007171630859,-0.47637459635734558,8
0.50475543737411499,0.97928690910339355,1.0038907527923584,0.052572648972272873,-1.5014408826828003,0.62867927551269531,0.21760325133800507,-9.9313793182373047,-0.63836747407913208,8
0.72599118947982788,0.9807857871055603,0.98323541879653931,0.19614249467849731,-1.4856648445129395,0.49618291854858398,0.20971475541591644,-9.8830738067626953,-0.56030988693237305,8
0.93367666006088257,0.98149138689041138,0.93367642164230347,0.28338491916656494,-1.4786715507507324,0.28338423371315002,0.5191388726234436,-9.8708934783935547,0.51913708448410034,8
-0.93438643217086792,1.1815872192382812,-0.93438625335693359,-0.29402825236320496,-1.4773088693618774,-0.29402720928192139,-0.59234166145324707,-9.8613195419311523,-0.59233719110488892,8
-0.72719341516494751,1.1809935569763184,-0.98538064956665039,-0.2089277058839798,-1.4837677478790283,-0.51955229043960571,-0.24833901226520538,-9.8795547485351562,0.48112031817436218,8
-0.50625604391098022,1.1794185638427734,-1.0088577270507812,-0.067746356129646301,-1.5001654624938965,-0.67493909597396851,-0.25367081165313721,-9.9284639358520508,0.56742668151855469,8
-0.30094107985496521,1.177642822265625,-1.0126326084136963,-0.015873616561293602,-1.5158478021621704,-0.71371924877166748,-0.13267409801483154,-9.9474115371704102,0.43706950545310974,8
-0.099935583770275116,1.1767014265060425,-1.0126066207885742,-0.0015854303492233157,-1.524843692779541,-0.71928930282592773,-0.033690813928842545,-9.9664268493652344,0.36083933711051941,8
0.09993559867143631,1.1767014265060425,-1.0126066207885742,0.0015855845995247364,-1.5248441696166992,-0.71928924322128296,0.033690296113491058,-9.9664268493652344,0.36084112524986267,8
0.30094107985496521,1.177642822265625,-1.0126326084136963,0.015873488038778305,-1.5158482789993286,-0.71371901035308838,0.13267330825328827,-9.9474115371704102,0.437071293592453,8
0.50625592470169067,1.1794185638427734,-1.0088578462600708,0.067745693027973175,-1.5001657009124756,-0.67493921518325806,0.25367057323455811,-9.9284639358520508,0.56742668151855469,8
0.72719335556030273,1.1809935569763184,-0.98538076877593994,0.20892694592475891,-1.4837678670883179,-0.51955300569534302,0.24833901226520538,-9.8795547485351562,0.48112031817436218,8
0.93438643217086792,1.1815872192382812,-0.93438637256622314,0.29402762651443481,-1.4773088693618774,-0.29402774572372437,0.59233897924423218,-9.8613195419311523,-0.59233808517456055,8
-0.98538070917129517,1.1809935569763184,-0.72719329595565796,-0.51955235004425049,-1.4837676286697388,-0.20892654359340668,0.48112031817436218,-9.879551887512207,-0.24833856523036957,8
-0.77298593521118164,1.1786311864852905,-0.77298504114151001,-0.40354523062705994,-1.4974513053894043,-0.40354093909263611,0.66310906410217285,-9.8153104782104492,0.66309654712677002,8
-0.5098915696144104,1.1700683832168579,-0.79181385040283203,-0.095609262585639954,-1.5524941682815552,-0.55768364667892456,-0.18841689825057983,-9.7711219787597656,0.39496597647666931,8
-0.30019208788871765,1.1615990400314331,-0.79069828987121582,-0.016448933631181717,-1.5979282855987549,-0.56760144233703613,-0.17706651985645294,-9.6639947891235352,0.30053254961967468,8
-0.099153913557529449,1.1574037075042725,-0.78826367855072021,0.0011387709528207779,-1.6239067316055298,-0.55835074186325073,-0.061692509800195694,-9.6250028610229492,0.23762582242488861,8
0.099154166877269745,1.1574026346206665,-0.78826397657394409,-0.001137888990342617,-1.6239093542098999,-0.55835056304931641,0.061684798449277878,-9.6249637603759766,0.2376401275396347,8
0.30019208788871765,1.1615986824035645,-0.79069793224334717,0.016448765993118286,-1.597929835319519,-0.56759947538375854,0.17706501483917236,-9.6639842987060547,0.30051466822624207,8
0.5098910927772522,1.1700683832168579,-0.79181373119354248,0.09560723602771759,-1.5524951219558716,-0.55768316984176636,0.18842852115631104,-9.7711219787597656,0.39496240019798279,8
0.77298516035079956,1.1786311864852905,-0.77298516035079956,0.40354236960411072,-1.4974515438079834,-0.40354177355766296,-0.66309207677841187,-9.8153104782104492,0.66309207677841187,8
0.98538064956665039,1.1809935569763184,-0.72719329595565796,0.51955175399780273,-1.4837676286697388,-0.20892663300037384,-0.48111853003501892,-9.879551887512207,-0.2483394593000412,8
-1.0088568925857544,1.1794185638427734,-0.50625592470169067,-0.67493569850921631,-1.5001654624938965,-0.067745685577392578,0.56740343570709229,-9.9284639358520508,-0.25366857647895813,8
-0.79181396961212158,1.1700683832168579,-0.5098913311958313,-0.55768477916717529,-1.5524941682815552,-0.095607802271842957,0.39496776461601257,-9.7711191177368164,-0.18841913342475891,8
-0.51425552368164062,1.1415396928787231,-0.51425516605377197,-0.14676198363304138,-1.7090088129043579,-0.14676065742969513,-0.34888473153114319,-9.534419059753418,-0.34886953234672546,8
-0.30206140875816345,1.1222692728042603,-0.53276908397674561,-0.033719144761562347,-1.7740620374679565,-0.23535214364528656,-0.22176581621170044,-9.225886344909668,0.020553765818476677,8
-0.096411176025867462,1.1113145351409912,-0.53283387422561646,0.0070946025662124157,-1.8173118829727173,-0.25294622778892517,-0.20457907021045685,-8.9555912017822266,-0.26830092072486877,8
0.096412055194377899,1.1113147735595703,-0.53283321857452393,-0.0070912144146859646,-1.8173091411590576,-0.25294405221939087,0.20455579459667206,-8.9556417465209961,-0.2683161199092865,8
0.30206140875816345,1.1222671270370483,-0.5327681303024292,0.03371814638376236,-1.7740651369094849,-0.2353474497795105,0.22177430987358093,-9.2258682250976562,0.020535437390208244,8
0.51425474882125854,1.1415392160415649,-0.51425462961196899,0.14676022529602051,-1.7090109586715698,-0.14675822854042053,0.34888741374015808,-9.5344152450561523,-0.34888428449630737,8
0.79181373119354248,1.1700683832168579,-0.50989055633544922,0.55768340826034546,-1.5524942874908447,-0.095605477690696716,-0.39496240019798279,-9.7711219787597656,-0.18843634426593781,8
1.0088568925857544,1.179418683052063,-0.50625592470169067,0.67493563890457153,-1.5001652240753174,-0.067745253443717957,-0.56740343570709229,-9.9284639358520508,-0.25366923213005066,8
-1.0126316547393799,1.1776430606842041,-0.30094107985496521,-0.71371537446975708,-1.515846848487854,-0.015873303636908531,0.43704983592033386,-9.9474153518676758,-0.13267286121845245,8
-0.79069888591766357,1.1615990400314331,-0.30019205808639526,-0.5676041841506958,-1.5979279279708862,-0.016448386013507843,0.30054506659507751,-9.6639842987060547,-0.17706450819969177,8
-0.53276997804641724,1.1222676038742065,-0.30206096172332764,-0.2353559285402298,-1.7740640640258789,-0.033716052770614624,0.020573435351252556,-9.2258577346801758,-0.22177581489086151,8
-0.31614121794700623,1.1035833358764648,-0.31614100933074951,-0.10283536463975906,-1.7811834812164307,-0.10283375531435013,0.021103618666529655,-9.3053979873657227,0.021111888810992241,8
-0.091613627970218658,1.086387038230896,-0.31822869181632996,0.0031878477893769741,-1.7989135980606079,-0.13507767021656036,-0.69439470767974854,-7.9788990020751953,0.11631800979375839,8
0.09161531925201416,1.0863888263702393,-0.31822875142097473,-0.0031835702247917652,-1.7989050149917603,-0.1350817084312439,0.6943773627281189,-7.9789958000183105,0.11642574518918991,8
0.31614083051681519,1.1035834550857544,-0.31614094972610474,0.10283588618040085,-1.7811791896820068,-0.10283293575048447,-0.021097136661410332,-9.3054189682006836,0.0212439876049757,8
0.53276920318603516,1.122269868850708,-0.30206140875816345,0.235353022813797,-1.774055004119873,-0.033718377351760864,-0.020540801808238029,-9.2259292602539062,-0.22177380323410034,8
0.7906983494758606,1.1615995168685913,-0.30019208788871765,0.56760168075561523,-1.5979245901107788,-0.016448631882667542,-0.30053254961967468,-9.6640129089355469,-0.17706626653671265,8
1.0126317739486694,1.1776430606842041,-0.30094107985496521,0.71371620893478394,-1.5158455371856689,-0.015873333439230919,-0.4370480477809906,-9.9474115371704102,-0.13267390429973602,8
-1.0126065015792847,1.1767032146453857,-0.099935486912727356,-0.71928739547729492,-1.5248385667800903,-0.0015855689998716116,0.36083576083183289,-9.966465950012207,-0.033693529665470123,8
-0.78826427459716797,1.1574027538299561,-0.099154092371463776,-0.55835241079330444,-1.623907208442688,0.0011381942313164473,0.23764191567897797,-9.6249599456787109,-0.061685908585786819,8
-0.53283435106277466,1.1113158464431763,-0.096411056816577911,-0.25294935703277588,-1.8173050880432129,0.0070960866287350655,-0.26830181479454041,-8.9556522369384766,-0.20457673072814941,8
-0.31822916865348816,1.0863893032073975,-0.091613441705703735,-0.13508062064647675,-1.7989037036895752,0.0031886349897831678,0.11621608585119247,-7.9790387153625488,-0.69442886114120483,8
-0.095618449151515961,1.0729676485061646,-0.095617584884166718,-0.0084049273282289505,-1.8624264001846313,-0.008401910774409771,0.28142768144607544,-7.2894425392150879,0.28118935227394104,8
0.095619291067123413,1.0729682445526123,-0.095618337392807007,0.0084041468799114227,-1.8624148368835449,-0.0084089282900094986,-0.28113171458244324,-7.2899398803710938,0.28142809867858887,8
0.318229079246521,1.086387038230896,-0.091614574193954468,0.13508467376232147,-1.7989273071289062,0.0031839199364185333,-0.11661573499441147,-7.9792890548706055,-0.69431143999099731,8
0.53283363580703735,1.1113171577453613,-0.096411921083927155,0.25294628739356995,-1.8172879219055176,0.007091715931892395,0.26834562420845032,-8.955531120300293,-0.20454926788806915,8
0.78826415538787842,1.1574027538299561,-0.09915412962436676,0.55835121870040894,-1.623904824256897,0.0011375125031918287,-0.23764728009700775,-9.6249494552612305,-0.061688438057899475,8
1.0126066207885742,1.1767033338546753,-0.099935494363307953,0.71928882598876953,-1.5248372554779053,-0.00158581358846277,-0.36083397269248962,-9.9664621353149414,-0.033694852143526077,8
-1.0126065015792847,1.1767032146453857,0.099935352802276611,-0.71928757429122925,-1.5248385667800903,0.0015843609580770135,0.36083576083183289,-9.966465950012207,0.033695384860038757,8
-0.78826415538787842,1.1574027538299561,0.099153690040111542,-0.55835187435150146,-1.6239068508148193,-0.001139954081736505,0.2376401275396347,-9.6249637603759766,0.061697971075773239,8
-0.5328332781791687,1.1113166809082031,0.096411153674125671,-0.25294488668441772,-1.8173032999038696,-0.0070956419222056866,-0.26835456490516663,-8.9556846618652344,0.20457759499549866,8
-0.31822896003723145,1.0863878726959229,0.09161406010389328,-0.13508272171020508,-1.7989126443862915,-0.0031871912069618702,0.11626794189214706,-7.9788632392883301,0.69444972276687622,8
-0.095618374645709991,1.0729682445526123,0.095618344843387604,-0.0084081739187240601,-1.8624157905578613,0.0084016602486371994,0.28142747282981873,-7.2899718284606934,-0.28114885091781616,8
0.095618456602096558,1.0729670524597168,0.095618471503257751,0.008404766209423542,-1.862415075302124,0.0084069166332483292,-0.28120508790016174,-7.290276050567627,-0.2814660370349884,8
0.31822884082794189,1.0863873958587646,0.091613955795764923,0.13508577644824982,-1.7989219427108765,-0.0031879106536507607,-0.11654778569936752,-7.9793496131896973,0.69423872232437134,8
0.5328335165977478,1.111316442489624,0.096410810947418213,0.25295078754425049,-1.8172909021377563,-0.0070971944369375706,0.26847660541534424,-8.9554805755615234,0.20455384254455566,8
0.78826427459716797,1.1574039459228516,0.099153637886047363,0.55835235118865967,-1.6239026784896851,-0.0011405814439058304,-0.23763833940029144,-9.6249780654907227,0.061697214841842651,8
1.0126066207885742,1.1767019033432007,0.099935322999954224,0.71928894519805908,-1.5248399972915649,0.0015840833075344563,-0.36083576083183289,-9.9664230346679688,0.033694535493850708,8
-1.0126316547393799,1.1776430606842041,0.3009411096572876,-0.71371549367904663,-1.5158469676971436,0.015872996300458908,0.43705162405967712,-9.9474153518676758,0.13267241418361664,8
-0.79069840908050537,1.1615990400314331,0.30019208788871765,-0.56760233640670776,-1.5979280471801758,0.016448106616735458,0.30053076148033142,-9.6639842987060547,0.17706690728664398,8
-0.53276920318603516,1.1222680807113647,0.30206090211868286,-0.23535284399986267,-1.7740609645843506,0.033717408776283264,0.020543036982417107,-9.2259149551391602,0.22185158729553223,8
-0.316141277551651,1.1035827398300171,0.31614059209823608,-0.10283638536930084,-1.7811850309371948,0.10283423215150833,0.021110100671648979,-9.30535888671875,-0.021100712940096855,8
-0.091614209115505219,1.0863858461380005,0.31822839379310608,0.0031856424175202847,-1.7989187240600586,0.13508188724517822,-0.69433838129043579,-7.9790706634521484,-0.116352878510952,8
0.09161454439163208,1.0863858461380005,0.31822884082794189,-0.0031857974827289581,-1.7989175319671631,0.13508594036102295,0.6943432092666626,-7.9790349006652832,-0.11640428751707077,8
0.31614050269126892,1.1035844087600708,0.31614074110984802,0.10283488780260086,-1.7811697721481323,0.10283536463975906,-0.021084396168589592,-9.3054656982421875,-0.021175144240260124,8
0.53276914358139038,1.1222689151763916,0.30206087231636047,0.23535209894180298,-1.774053692817688,0.033715676516294479,-0.020531414076685905,-9.2259292602539062,0.22179341316223145,8
0.79069840908050537,1.1615993976593018,0.30019181966781616,0.56760275363922119,-1.5979248285293579,0.016447339206933975,-0.3005271852016449,-9.6640090942382812,0.17707274854183197,8
1.0126317739486694,1.1776430606842041,0.3009411096572876,0.71371746063232422,-1.5158467292785645,0.01587284728884697,-0.4370480477809906,-9.9474077224731445,0.13267190754413605,8
-1.0088566541671753,1.1794185638427734,0.50625604391098022,-0.67493504285812378,-1.5001657009124756,0.067746065557003021,0.56740343570709229,-9.9284639358520508,0.25366923213005066,8
-0.79181391000747681,1.1700683832168579,0.50989145040512085,-0.55768412351608276,-1.552495002746582,0.095608778297901154,0.39496597647666931,-9.7711191177368164,0.18841846287250519,8
-0.5142553448677063,1.1415386199951172,0.51425528526306152,-0.14676184952259064,-1.7090144157409668,0.14676159620285034,-0.34887757897377014,-9.5343866348266602,0.34887713193893433,8
-0.30206096172332764,1.1222679615020752,0.53276997804641724,-0.033716410398483276,-1.7740658521652222,0.23535548150539398,-0.22178883850574493,-9.2258329391479492,-0.020560024306178093,8
-0.096411295235157013,1.1113158464431763,0.53283476829528809,0.0070947851054370403,-1.8172987699508667,0.25295132398605347,-0.20456336438655853,-8.9557342529296875,0.26830181479454041,8
0.096411526203155518,1.1113160848617554,0.53283423185348511,-0.0070938360877335072,-1.8172954320907593,0.252949059009552,0.20456951856613159,-8.9557380676269531,0.26832953095436096,8
0.30206075310707092,1.1222704648971558,0.53276962041854858,0.033715490251779556,-1.7740504741668701,0.23535402119159698,0.22180721163749695,-9.225947380065918,-0.02053096704185009,8
0.51425522565841675,1.1415386199951172,0.5142555832862854,0.14676052331924438,-1.7090104818344116,0.14676268398761749,0.34887668490409851,-9.534358024597168,0.34886640310287476,8
0.79181385040283203,1.1700683832168579,0.50989145040512085,0.55768394470214844,-1.5524944067001343,0.095608644187450409,-0.39496240019798279,-9.7711153030395508,0.18841734528541565,8
1.0088570117950439,1.1794185638427734,0.50625604391098022,0.67493695020675659,-1.500165581703186,0.067745871841907501,-0.56740343570709229,-9.9284639358520508,0.25366902351379395,8
-0.98538064956665039,1.1809935569763184,0.72719335556030273,-0.51955145597457886,-1.4837678670883179,0.20892675220966339,0.48111853003501892,-9.8795547485351562,0.2483394593000412,8
-0.77298527956008911,1.1786311864852905,0.77298521995544434,-0.40354272723197937,-1.4974516630172729,0.40354183316230774,0.66309207677841187,-9.8153104782104492,-0.66309475898742676,8
-0.50989145040512085,1.1700683832168579,0.79181402921676636,-0.095608562231063843,-1.5524952411651611,0.55768442153930664,-0.18841823935508728,-9.7711219787597656,-0.39496597647666931,8
-0.30019205808639526,1.1615989208221436,0.79069799184799194,-0.016448590904474258,-1.5979297161102295,0.56760013103485107,-0.17706581950187683,-9.6639842987060547,-0.30051824450492859,8
-0.099154077470302582,1.1574022769927979,0.78826338052749634,0.0011383000528439879,-1.6239105463027954,0.55834823846817017,-0.061686988919973373,-9.6249523162841797,-0.23762939870357513,8
0.099153749644756317,1.1574026346206665,0.78826338052749634,-0.001139399129897356,-1.6239094734191895,0.55834817886352539,0.06169591099023819,-9.6249494552612305,-0.23762939870357513,8
0.30019202828407288,1.1615990400314331,0.79069799184799194,0.016448104754090309,-1.5979280471801758,0.56759995222091675,0.17706552147865295,-9.6639804840087891,-0.30052182078361511,8
0.50989145040512085,1.1700683832168579,0.79181396961212158,0.095608353614807129,-1.5524946451187134,0.55768388509750366,0.18841712176799774,-9.7711191177368164,-0.39496776461601257,8
0.77298527956008911,1.1786311864852905,0.77298521995544434,0.40354263782501221,-1.4974516630172729,0.40354183316230774,-0.66309118270874023,-9.8153104782104492,-0.66309475898742676,8
0.98538064956665039,1.1809935569763184,0.72719335556030273,0.51955223083496094,-1.4837678670883179,0.20892676711082458,-0.48111674189567566,-9.8795547485351562,0.2483394593000412,8
-0.93438643217086792,1.1815872192382812,0.93438625335693359,-0.29402759671211243,-1.4773088693618774,0.29402726888656616,-0.59233897924423218,-9.8613195419311523,0.59233719110488892,8
-0.72719335556030273,1.1809935569763184,0.98538064956665039,-0.20892700552940369,-1.4837678670883179,0.51955240964889526,-0.24833856523036957,-9.879551887512207,-0.48112031817436218,8
-0.50625604391098022,1.1794185638427734,1.0088576078414917,-0.067745953798294067,-1.5001658201217651,0.67493879795074463,-0.25367069244384766,-9.9284639358520508,-0.56742668151855469,8
